// Start Time: Unknown
// Update Rate: 60.0Hz
// Filter Profile: human (46.1)
// Option Flags: AHS Disabled ICC Disabled 
// Firmware Version: 4.0.2
PacketCounter	SampleTimeFine	Mat[1][1]	Mat[2][1]	Mat[3][1]	Mat[1][2]	Mat[2][2]	Mat[3][2]	Mat[1][3]	Mat[2][3]	Mat[3][3]
2821	2523560948.0	0.2503238317881525	0.026875758915430675	0.9677890642188598	0.009596455969164752	-0.9996344001217929	0.025277937534045614	0.9681146044098956	0.002959674958991576	-0.2504902254628083
2822	2523577615.0	0.2504017805597959	0.026839876640175675	0.9677698948171636	0.00963666472985264	-0.9996352187976412	0.02523022061489505	0.9680940465602337	0.003008381846111463	-0.25056908558978247
2823	2523594282.0	0.25045200661359435	0.02682111845336735	0.96775741794529	0.009796501050130912	-0.9996352008089362	0.025169304139223525	0.9680794497097844	0.003176933834436735	-0.2506233950392755
2824	2523610949.0	0.2504791986689346	0.026834441775940424	0.9677500109887582	0.009956369633996764	-0.9996343189389925	0.025141581157272275	0.9680707834336698	0.003337833721165029	-0.25065477679104836
2825	2523627616.0	0.2504913510867311	0.02684733568323354	0.9677465079231524	0.010067721724100365	-0.9996335948357538	0.025126023462425817	0.9680664873912486	0.0034491509767002326	-0.25066986126678625
2826	2523644283.0	0.2505058460453905	0.026861310480578174	0.9677423681416191	0.010081490042868624	-0.9996331841380632	0.025136840066172006	0.9680625933562347	0.003459359660797745	-0.2506847585617016
2827	2523660950.0	0.2505063368380987	0.026884996016874427	0.9677415833749885	0.010083312717416193	-0.9996325621552209	0.025160832331840743	0.9680624473703128	0.0034550930755705145	-0.25068538115183214
2828	2523677617.0	0.25046964670623434	0.026950819425094766	0.9677492492434031	0.010222727406801246	-0.9996303394352313	0.025192862579919595	0.9680704787995658	0.003582989383240698	-0.25065256883554804
2829	2523694284.0	0.25042233724288104	0.026977810467464572	0.9677607404478623	0.010305026532711925	-0.9996293241234507	0.02519961866087339	0.9680818454231921	0.003662252704946911	-0.25060751877617765
2830	2523710951.0	0.2503981750559642	0.02696778121945395	0.9677672719743845	0.010187043143883412	-0.9996300221411368	0.025219892666200172	0.968089344059022	0.003543671854117636	-0.2505802552260712
2831	2523727618.0	0.2503976416502899	0.02698412841512296	0.9677669543178511	0.010189117423341165	-0.999629588355605	0.02523624318589851	0.9680894601957544	0.00354159535811166	-0.2505798359010816
2832	2523744285.0	0.25042995635657544	0.02700521086303352	0.967758004640358	0.010319736592643347	-0.9996285553380253	0.0252240835209393	0.9680797177897605	0.0036701415580270846	-0.25061562214882344
2833	2523760952.0	0.2504777448300444	0.02702069218635482	0.9677452048647031	0.01028992793686262	-0.9996282687907623	0.025247606172433434	0.968067671564292	0.003634064962873884	-0.25066267541047327
2834	2523777619.0	0.2505238389851052	0.027049000429144265	0.9677324824950073	0.010268414002929827	-0.9996276146612639	0.025282240416871382	0.9680559724385929	0.0036032738469626846	-0.25070829791523525
2835	2523794286.0	0.25056785817004135	0.02705138646119809	0.9677210191695773	0.010401924495363646	-0.9996270503884158	0.025249952446463275	0.968043154213112	0.0037393344705725085	-0.2507557954641257
2836	2523810953.0	0.25058586511757924	0.027034027175757744	0.9677168416318562	0.010354908370448446	-0.9996276856142947	0.02524412854603192	0.9680389971875689	0.0036947974327907196	-0.25077250326943074
2837	2523827620.0	0.2505968100487622	0.027025122779972113	0.9677142561376846	0.010371882666896814	-0.9996278539680362	0.025230489912063503	0.9680359822048605	0.003714338431812847	-0.25078385284281224
2838	2523844287.0	0.2505842374950189	0.02703525851228475	0.967717228696593	0.010437218942041915	-0.9996273355784839	0.02522408422554162	0.9680385345531427	0.0037795186777248024	-0.25077302657735917
2839	2523860954.0	0.250571698553757	0.027020550118971448	0.9677208862865126	0.01045248190127801	-0.9996276577879726	0.025204987749166796	0.9680416155858118	0.003799428457063103	-0.2507608319443272
2840	2523877621.0	0.25056103558045784	0.027023335498539955	0.9677235694078046	0.010519304858501388	-0.9996273195248976	0.025190599134639835	0.9680436517400145	0.003867996639290272	-0.25075192307907845
2841	2523894288.0	0.25056437484953037	0.0269984793558897	0.9677233985849126	0.01063173612228624	-0.9996275098470431	0.025135786123088866	0.9680415591508921	0.003990447276833509	-0.2507580827954319
2842	2523910955.0	0.25057581708399845	0.026976538862493224	0.9677210477424198	0.010633528681328275	-0.9996280733002187	0.025112609141142828	0.9680385777232587	0.003997676962041119	-0.2507694770470226
2843	2523927622.0	0.2505703921477295	0.026936318958593997	0.9677235727726663	0.010523744289817782	-0.9996295637132229	0.025099525028066505	0.9680411816576069	0.0038948775940840785	-0.25076104271491517
2844	2523944289.0	0.2505129768340572	0.026914244493859804	0.9677390515428548	0.010570572385212362	-0.9996299400661621	0.025064834385459867	0.9680555311743166	0.003950489418576286	-0.25070477098804006
2845	2523960956.0	0.25046815611792933	0.02687390474227523	0.9677517739662312	0.010551546376416143	-0.9996310569475603	0.025028281102980443	0.9680673363149646	0.003942490305198998	-0.25065930888407567
2846	2523977623.0	0.25035637990303095	0.0268237205905488	0.9677820886209508	0.010398984847492077	-0.9996329530871395	0.025016398950024887	0.9680979000886177	0.0038009361959053245	-0.25054342683064706
2847	2523994290.0	0.25023483220702636	0.026778629990836883	0.9678147724260748	0.01028273512134903	-0.9996345561894165	0.025000388605226576	0.968130566663787	0.0036958149036468435	-0.2504187429955123
2848	2524010957.0	0.2501063420686689	0.02676502662389177	0.9678483615767776	0.010251386106348959	-0.9996350141795526	0.02499494967278365	0.9681641011419133	0.0036703918140703617	-0.25028943542227794
2849	2524027624.0	0.2500072667343688	0.026705711775447116	0.967875597139724	0.01001683431810152	-0.9996373986049105	0.02499468624830775	0.9681921449847928	0.0034461963052596634	-0.25018412044086996
2850	2524044291.0	0.2498696215141678	0.02659221923454015	0.9679142658937044	0.009450132232047881	-0.9996421750149892	0.02502432680610006	0.9682333743706439	0.002894098734294026	-0.2500315119087049
2851	2524060958.0	0.24971870216770198	0.02654944466544089	0.9679543877557637	0.009188276459384248	-0.9996440184204636	0.02504819378505191	0.9682748294587568	0.0026388300711256973	-0.24987375054709376
2852	2524077625.0	0.24960777063899378	0.026578262754544474	0.9679822089199688	0.009396922282541798	-0.9996426735764303	0.025024448377190478	0.9683014296634326	0.0028497568172028975	-0.2497683330565254
2853	2524094292.0	0.24961932585433472	0.026548439424714423	0.9679800475857652	0.009439164127860833	-0.99964331938645	0.024982717758636364	0.9682980400375678	0.002900753376736731	-0.24978088655710357
2854	2524110959.0	0.24978276072544578	0.026465717037642777	0.967940152212965	0.009225848474683773	-0.9996460819518427	0.024951844786546995	0.9682579491872487	0.0026975285009026018	-0.24993852679346956
2855	2524127626.0	0.2500915371506712	0.026336585432245554	0.9678639404964856	0.008953081437140797	-0.999650151538219	0.024888086756427064	0.9681808020087954	0.002441064805682902	-0.25023983660524574
2856	2524144293.0	0.25050965007609616	0.026266324391809773	0.9677577152478279	0.008960113746665721	-0.9996519649868381	0.024812602838083175	0.9680726375538142	0.0024554227533885586	-0.2506578132009923
2857	2524160960.0	0.2509612266433054	0.026238703144190245	0.967641459001731	0.009151154314064769	-0.9996521989784666	0.02473332675231138	0.9679538827322341	0.0026479302912818525	-0.251114056493787
2858	2524177627.0	0.25142926721281067	0.02619733075475729	0.9675210713210098	0.009171468685719053	-0.9996532325242511	0.024683979945756274	0.9678322208683569	0.002667314218736838	-0.2515823477191566
2859	2524194294.0	0.2518996205168435	0.02614762131830782	0.9674000636152886	0.009107884403783406	-0.9996547056472496	0.02464783801873588	0.9677105081713009	0.0026021869081405136	-0.25205079051282026
2860	2524210961.0	0.252341645178538	0.0260960679935055	0.9672862499507927	0.009028656233957433	-0.9996562579036332	0.02461400822121612	0.9675960817795813	0.0025221557016598117	-0.2524905171593951
2861	2524227628.0	0.2527352795347613	0.026114758944257938	0.9671829701994185	0.009199830217529847	-0.9996553489428308	0.024587526389528103	0.9674917268909613	0.0026837837599952286	-0.2528884254019446
2862	2524244295.0	0.2531153483918144	0.026155031186083186	0.9670824860125147	0.0092635798612406	-0.9996541733025073	0.02461137718689277	0.9673917544080293	0.002729128530521374	-0.2532701035669607
2863	2524260962.0	0.25347525421769235	0.026210713560726767	0.9669867082819257	0.00934807646669128	-0.9996525401868375	0.024645737245543253	0.9672967016203711	0.0027923811775969476	-0.2536322015078328
2864	2524277629.0	0.2539221490536675	0.026249091830315874	0.9668684126591638	0.009317619644752695	-0.9996516807438518	0.024692086792094448	0.9671797786265608	0.0027390443728155245	-0.2540782821332846
2865	2524294296.0	0.2543903571665772	0.02625482524954649	0.9667451734204714	0.009012936631210167	-0.9996523770677226	0.024776843950226335	0.9670596223366703	0.0024102228046083973	-0.25453855832091343
2866	2524310963.0	0.25484544217124167	0.02623820853798324	0.9666257585111531	0.00869841599694382	-0.9996535604266779	0.024841430824549093	0.9669426757381685	0.0020773875382428253	-0.2549853844778706
2867	2524327630.0	0.2552885089663026	0.026237080049074962	0.9665088684643617	0.008510329856406706	-0.9996539968111198	0.024888972363055595	0.9668274672740206	0.0018714406355062052	-0.2554234645338023
2868	2524344297.0	0.25563979639980894	0.026266257519961894	0.9664152203957463	0.008520920834520107	-0.9996532420355326	0.024915649619874802	0.9667345490902846	0.0018653159902737304	-0.25577496396531935
2869	2524360964.0	0.25597430902147944	0.02629195153009392	0.9663259731610838	0.008464685839829067	-0.999652701719224	0.024956462872156526	0.9666465239241331	0.0017914324423551342	-0.25610796269385183
2870	2524377631.0	0.25632746654647476	0.026318010139538647	0.9662316452260094	0.00812369044480371	-0.9996526092047406	0.025073224039019737	0.9665558626108596	0.0014224107877154335	-0.2564522201115212
2871	2524394298.0	0.2566495007029358	0.026320255665301245	0.9661460955417909	0.0075646853549811155	-0.9996532133494881	0.025223571823267454	0.9664749398325929	0.0008349741053309545	-0.25675960253480207
2872	2524410965.0	0.25698383996978613	0.026357346353963765	0.9660562076233248	0.006947707990157426	-0.9996525689753755	0.02542578798416195	0.9663907260254863	0.0001778598022181832	-0.2570776789568163
2873	2524427632.0	0.25732449807772684	0.026309354332148163	0.9659668320204746	0.00570994338913422	-0.9996532447974944	0.02570577196533752	0.9663081802590409	-0.0010991089420626654	-0.2573854943931274
2874	2524444299.0	0.2576978255223086	0.026186200562884537	0.965870650564119	0.004016361061880747	-0.9996530804412664	0.02603051302045145	0.9662172113789397	-0.002828721330861317	-0.2577135983426911
2875	2524460966.0	0.25814454851553387	0.026098884633022706	0.9657537161681663	0.0023686650046328417	-0.9996491348920975	0.026381746257145955	0.9661034010383189	-0.004522756946020667	-0.25811579411535474
2876	2524477633.0	0.258629811467912	0.02606545760901302	0.9656247783376861	0.0009804225995398985	-0.9996424464548157	0.026721115570976783	0.9659760138800544	-0.005964156726976033	-0.2585628926256384
2877	2524494300.0	0.2591818002025839	0.026036096039892806	0.9654775585930258	-0.0007004042146451228	-0.9996312573075119	0.027145144091335338	0.9658282993771119	-0.007711751863534788	-0.259067993016334
2878	2524510967.0	0.25977356582497085	0.02600185068413255	0.9653194280959952	-0.0027124497887877075	-0.9996138322329235	0.027655542387585552	0.9656657481316828	-0.009802559339698314	-0.2596027209327145
2879	2524527634.0	0.26041136258831993	0.026040848046056428	0.9651465155446279	-0.004564483472375758	-0.9995918288781536	0.02820179303977427	0.9654869692158071	-0.011749462671545807	-0.2601862071697978
2880	2524544301.0	0.2610669818626731	0.026159291650028768	0.964966176838071	-0.006399352519665169	-0.9995638873782025	0.028828516033692353	0.9652994764675072	-0.013701332407636158	-0.26078572472781497
2881	2524560968.0	0.2616671279179698	0.026370963996267205	0.9647978474401094	-0.008015746273231872	-0.9995328059542883	0.029494366120163484	0.9651248944975175	-0.015451280822464442	-0.26133349563747327
2882	2524577635.0	0.2622437589661464	0.026645035693847352	0.9646337403160743	-0.009261892709572617	-0.9995031937098775	0.03012612001555276	0.9649572157493524	-0.016834721162785005	-0.26186669115530753
2883	2524594302.0	0.26281982050807534	0.02698302849547833	0.9644675516165981	-0.010313395256462687	-0.9994731952062524	0.030772811741672512	0.964789809143104	-0.018034639930329888	-0.2624030791286497
2884	2524610969.0	0.2634387424006237	0.02735612011327787	0.9642881683888516	-0.011362378843608856	-0.9994405041693746	0.03145751059255958	0.9646092086173512	-0.019243734513201827	-0.26298051892220703
2885	2524627636.0	0.2640645194926621	0.027769448399746918	0.9641051743874646	-0.01258560209073789	-0.9994011312533615	0.032233235480091105	0.9644229010994726	-0.020645497937206214	-0.26355688427700336
2886	2524644303.0	0.264654478636542	0.02825180049935319	0.9639293764099965	-0.013786753019998932	-0.9993577643321944	0.03307543363470494	0.9642447471356977	-0.022043017885556626	-0.2640950074948623
2887	2524660970.0	0.26519178720477277	0.028826726509047787	0.9637646682867718	-0.014706925970138784	-0.9993157634336589	0.03393687200541745	0.964083514187255	-0.02317379536838504	-0.2645863807541439
2888	2524677637.0	0.2656154183305223	0.029597876978848053	0.9636246236078896	-0.015023980192326258	-0.9992801673157123	0.034834282376169645	0.9639619959128485	-0.023729999743512586	-0.2649795417534922
2889	2524694304.0	0.26594470630947675	0.030553804594183623	0.9635039585859453	-0.014839601497969146	-0.9992493879068449	0.0357833340422285	0.9638740578588822	-0.023814403049765565	-0.26529167871238574
2890	2524710971.0	0.2662671149966055	0.03154329945471486	0.9633830202629143	-0.014797598120452782	-0.999212853138189	0.03680632029021341	0.9637856891245327	-0.024056067487234822	-0.26559075860390846
2891	2524727638.0	0.2665689685684456	0.032634876026051224	0.9632631778818909	-0.014971505132247764	-0.9991657924828423	0.03799438335081545	0.9636995584882406	-0.024549623192585135	-0.2658580015171106
2892	2524744305.0	0.26692746224602815	0.03377447928998635	0.963124610031114	-0.015737576771960082	-0.9990996709636577	0.0393976669062685	0.963588116664087	-0.025673566737033193	-0.2661556112404118
2893	2524760972.0	0.267318550391897	0.034968152502152	0.9629735307509554	-0.016931744467121035	-0.9990166100653395	0.04097717465684908	0.9634594483659782	-0.027258780679701	-0.26646360019743975
2894	2524777639.0	0.26758155654753946	0.03638505625783768	0.9628479829530256	-0.017568471866546587	-0.99893639955751	0.04263119087420536	0.9633750356906029	-0.028323088111866623	-0.26665772684836486
2895	2524794306.0	0.26771940687096374	0.0379873224134301	0.9627477772088169	-0.017755507185022168	-0.998858277252055	0.04434956515750388	0.9633333074015775	-0.028967314354547358	-0.26673926135802134
2896	2524810973.0	0.2678133681264407	0.03977384038135438	0.9626494904554256	-0.017907905218649656	-0.9987694451248768	0.04624826932573739	0.9633043687139864	-0.029624940612001605	-0.26677154291693844
2897	2524827640.0	0.26788674005109836	0.04158628866323297	0.9625524791407551	-0.018743986912640898	-0.9986539531783002	0.04836263801709251	0.9632680610605826	-0.030997780510414574	-0.2667466591056281
2898	2524844307.0	0.26790245801379947	0.04353309798007922	0.962462021261318	-0.020370183633610373	-0.9984993963822758	0.05083316872834054	0.9632306725851797	-0.03322385896442143	-0.26661366541611264
2899	2524860974.0	0.26779507927087054	0.04562562157741619	0.9623949803349885	-0.022092109117264558	-0.9983247075714854	0.053476321555050055	0.9632225777218157	-0.03558203068941751	-0.2663384779917433
2900	2524877641.0	0.26760621297228804	0.04779147597576654	0.962342397280037	-0.02419069259723078	-0.9981210651783632	0.05629520085119477	0.9632246493784807	-0.038344674614186114	-0.26594728943615037
2901	2524894308.0	0.26734007821080585	0.050117146919254146	0.9622980589021857	-0.027115750043812892	-0.9978598119293041	0.05950236832240979	0.9632206490113269	-0.04200080143387924	-0.26540895613582854
2902	2524910975.0	0.2670492352153766	0.05253208562436951	0.9622500121854175	-0.03076984935933702	-0.9975392029329948	0.06299805538434611	0.9631915294173252	-0.04643187043141106	-0.26477567687941905
2903	2524927642.0	0.26666065059124344	0.05525695658257612	0.9622051580486805	-0.033853184890642596	-0.9972020462441447	0.06664863718975067	0.9631957533642965	-0.0503462780721905	-0.26404392245469865
2904	2524944309.0	0.26628172309002784	0.05817328372451479	0.9621381984979669	-0.03757622327653093	-0.996791874601088	0.07066814114946918	0.9631625363314742	-0.05497115416248877	-0.26324152563295533
2905	2524960976.0	0.2659084670299326	0.06103362731799711	0.962064230443165	-0.04264076924419896	-0.9962722268596915	0.07498943116396173	0.9630547502401171	-0.06096348353268061	-0.2623146997701547
2906	2524977643.0	0.26559448285534515	0.06378016757704007	0.9619727963412721	-0.04931679984930598	-0.9956041130190797	0.07962602207893427	0.9628226336815235	-0.06858965201352263	-0.261281525767205
2907	2524994310.0	0.2652643349836353	0.06641074890187822	0.9618858794139675	-0.057760157058531714	-0.9947388012061823	0.08460781070008411	0.9624440746569453	-0.07800211410711361	-0.26003283129742927
2908	2525010977.0	0.2648558166480038	0.06945482848108275	0.96178345961468	-0.06271520435841965	-0.9940502635958564	0.08905546915990403	0.9622464338879106	-0.08390530522959988	-0.25892412059197384
2909	2525027644.0	0.26474117830582533	0.07178599377398096	0.9616438423902716	-0.06980482120411075	-0.993182579467632	0.09335764981341055	0.9617896835825936	-0.09184299069555191	-0.2579253179007277
2910	2525044311.0	0.2650404373901968	0.07267480171501935	0.9614946384373113	-0.08256843344994469	-0.9917824255087941	0.09772448132129186	0.9606955919257856	-0.105290045339415	-0.2568618033238666
2911	2525060978.0	0.26574043411176906	0.07297042769665706	0.9612790117129656	-0.09657241834756175	-0.9901006447299476	0.10185519780475616	0.9591953866093146	-0.11990008334905122	-0.25606284447435657
2912	2525077645.0	0.26691152082091635	0.07245119110140122	0.9609937902822545	-0.10954049616765082	-0.9884268723197345	0.10494378388247644	0.9574753885883491	-0.1332784415583229	-0.2558861802899373
2913	2525094312.0	0.2683970186812427	0.07038737580643241	0.9607333957399967	-0.1264174853833488	-0.9861280068540808	0.10756474091145674	0.9549773085012919	-0.15032355578911127	-0.2557756220255294
2914	2525110979.0	0.27005647244571446	0.06783882377564357	0.9604516623333599	-0.14231098552986665	-0.9837467228428871	0.1094987154874349	0.9522694393330573	-0.16625365946233273	-0.2560129598822831
2915	2525127646.0	0.271626437831416	0.0654221665411504	0.9601765558458912	-0.15266117340006474	-0.9821260591227645	0.11010436016844916	0.9502176826428412	-0.1764889348289298	-0.2567839782303767
2916	2525144313.0	0.2732340337422947	0.06314157100516586	0.9598730670333	-0.1595231772916385	-0.9810528280098665	0.10994409743421235	0.9486282299782645	-0.18316247067792762	-0.25798447748549186
2917	2525160980.0	0.27523548499463085	0.05965149605970679	0.9595244274210062	-0.17047215617155492	-0.9792285467769335	0.10977566737376959	0.9461419934502389	-0.19378635709196418	-0.25934952484057966
2918	2525177647.0	0.27766993994117206	0.05502132502113996	0.959099608093958	-0.18537966272372847	-0.9765256675284752	0.1096904795618226	0.942620700547947	-0.20825531073896786	-0.2609519887786131
2919	2525194314.0	0.28021790853740275	0.04963655649721899	0.9586522497725765	-0.1991168812585865	-0.9739362723841269	0.10863058930322456	0.9390582470394357	-0.22132408272397797	-0.2630309089700525
2920	2525210981.0	0.28241831556999364	0.0447520251870448	0.9582469156080105	-0.2080847504365652	-0.9722697607013477	0.10673447925340857	0.9364510834348794	-0.22954034213488933	-0.26527457410433836
2921	2525227648.0	0.2839866220206686	0.040510022839279305	0.9579720959207796	-0.21448940027043661	-0.9711038681193447	0.10464977064129216	0.934529772497869	-0.23519399518951967	-0.2670915366346789
2922	2525244315.0	0.2845658162002911	0.036595305821083016	0.9579577651661495	-0.21994947895723033	-0.9701221968284157	0.10239702108582688	0.9330833419136284	-0.23984100319309415	-0.26801449630686985
2923	2525260982.0	0.28387399996683144	0.03330424059359639	0.9582830373649092	-0.2243191214778832	-0.9693570009974115	0.10013958436450476	0.9322534440173567	-0.24338823343742189	-0.2677044712775433
2924	2525277649.0	0.28199162404516714	0.031098599138297725	0.9589127181865953	-0.22372791809187131	-0.9697883446180169	0.0972439474174277	0.9329665281427014	-0.24195752473250765	-0.26651456543812374
2925	2525294316.0	0.27929889175722555	0.029401461545896013	0.9597539700997078	-0.22055059161911927	-0.9708428078887095	0.09392379308366411	0.9345317360045307	-0.23790711723219138	-0.26467081057537545
2926	2525310983.0	0.2762548508559382	0.027563811160093793	0.9606890723292807	-0.21725508968339596	-0.9719235203847854	0.09035981700681406	0.9362069661059048	-0.23367692833734371	-0.2625102089016749
2927	2525327650.0	0.2733444289481324	0.02515937080683911	0.9615871407332899	-0.21472738368266026	-0.9728366375213636	0.08649293261837648	0.9376433084386726	-0.23012145218716884	-0.2605170692746439
2928	2525344317.0	0.2705990971569554	0.021602208583972535	0.9624497250257465	-0.2151956209659598	-0.9730931012145425	0.0823447696319517	0.938332016577776	-0.2293973865434364	-0.2586694139478529
2929	2525360984.0	0.26826635881720234	0.017061338046569258	0.9631936832595096	-0.21801452234397267	-0.9728273332695665	0.07795285556509846	0.9383511223279319	-0.23090233950240602	-0.2572572269893038
2930	2525377651.0	0.26652320141768454	0.011470955105351108	0.9637602400467866	-0.2237223302927302	-0.9718823661269181	0.07343694805705142	0.9375039744099538	-0.2351873372452576	-0.2564628908146879
2931	2525394318.0	0.2652296820112236	0.004782864908407944	0.9641733972597945	-0.23210888270580043	-0.9702633108579679	0.06866275680454181	0.9358304773564978	-0.24200461112590926	-0.2562324839759924
2932	2525410985.0	0.2642369764885166	-0.002309113185394812	0.9644550213734719	-0.2411660929854867	-0.968387426879568	0.0637550551382785	0.9338188988504799	-0.24944029237047183	-0.2564406455533343
2933	2525427652.0	0.2634639441485398	-0.009648334042190662	0.9646209928173375	-0.24999841461702582	-0.9664704536465175	0.058614459967388566	0.9317121566356581	-0.2565965157177806	-0.2570421858349832
2934	2525444319.0	0.26275314460538435	-0.01613683770220571	0.9647281417419908	-0.2542688022293132	-0.9656747767085796	0.05309992317984724	0.930756768018827	-0.2592524408714563	-0.2578371786405903
2935	2525460986.0	0.26201065521314365	-0.021849443314223685	0.9648176088679342	-0.2519708814434519	-0.9666152527404206	0.046536309202418635	0.9315906243943148	-0.25529895220394405	-0.2587689192004696
2936	2525477653.0	0.2610593242078601	-0.027661196075001032	0.964926363758311	-0.2507226542811945	-0.967227844604267	0.040105451654073976	0.9321942822579039	-0.2523988012132486	-0.2594391359679317
2937	2525494320.0	0.259885908513999	-0.03364882857813714	0.9650528850229774	-0.2505775870786949	-0.9675082030094446	0.03374536950833601	0.9325610904437691	-0.2505905693452054	-0.2598733906069904
2938	2525510987.0	0.2584747505967182	-0.039497695409403566	0.9652102026819392	-0.24894024717809832	-0.968141130012203	0.02704636229887536	0.9333914273437869	-0.2472704681842146	-0.2600726031805113
2939	2525527654.0	0.2568245170211471	-0.04519436990195544	0.9654007646495936	-0.24488586288426678	-0.969350381431366	0.01976745249883305	0.9349182218869643	-0.24148976572109782	-0.2600204058063264
2940	2525544321.0	0.2551108930313306	-0.05100514397483351	0.9655655894577352	-0.23974268256636472	-0.9707615269275605	0.012062503602270791	0.93671867623777	-0.23456456067653975	-0.25987995009615833
2941	2525560988.0	0.25333211120506405	-0.056839727789514655	0.9657080753401615	-0.23449895077750044	-0.9721068657798358	0.004299254348815507	0.9385270819303173	-0.22754666960542025	-0.25959474115406356
2942	2525577655.0	0.25147012244943234	-0.06281976066570436	0.9658242361761125	-0.22843836002737788	-0.9735507885696664	-0.003844183057904793	0.9405204374086029	-0.21966460740247667	-0.2591693791161413
2943	2525594322.0	0.2495237072095289	-0.06908157222248468	0.9659014731946957	-0.22359137012699443	-0.9746097949336003	-0.01194348459283856	0.9422021114098329	-0.21298705124667927	-0.2586342924983029
2944	2525610989.0	0.2476002298496045	-0.07544327960139886	0.9659205131590323	-0.21790844444676055	-0.9757569543142477	-0.020353769827139545	0.944039213177724	-0.2054426383941958	-0.2580373738674607
2945	2525627656.0	0.24569934906370272	-0.08232394318078314	0.9658439823536925	-0.21229415596540574	-0.9767679529281905	-0.02924991410941602	0.945813417758814	-0.19785634817119052	-0.25746814225405024
2946	2525644323.0	0.24387688094904886	-0.08992845362162179	0.965627744095926	-0.20876422371514064	-0.9772164229090685	-0.03828265525560032	0.94706998993484	-0.19225227183580507	-0.2570943370414712
2947	2525660990.0	0.24205077919837864	-0.09830373266897484	0.9652708409730425	-0.20605919787325516	-0.9773682017961205	-0.04786444494245157	0.948130279688023	-0.18731730902712923	-0.256829123110185
2948	2525677657.0	0.2400510609753734	-0.10746253231943842	0.9647939118133424	-0.20450920346460977	-0.9771475160163458	-0.05795444453496418	0.9489739057649944	-0.18339720851359498	-0.25654237483611275
2949	2525694324.0	0.23764841302365527	-0.11734640585884798	0.9642370314499175	-0.20444142039024382	-0.9764826524134184	-0.06844950813903072	0.9495930377883771	-0.18086307132100282	-0.2560500185826513
2950	2525710991.0	0.2342250142043659	-0.12806804588299586	0.9637101319093184	-0.2048437197351699	-0.9755319480650919	-0.07985279449954402	0.9503566137014169	-0.17870644624086202	-0.2547279192902461
2951	2525727658.0	0.22959725285133387	-0.13897030018392403	0.9633132186105985	-0.20429846804128388	-0.9745849658080912	-0.09190364724441968	0.9516024576676466	-0.17570258987172682	-0.2521534502505619
2952	2525744325.0	0.22318233202111004	-0.15062228408253103	0.9630693506759418	-0.20320194080263232	-0.9734734157747318	-0.10515930788056427	0.9533617455759709	-0.17222786161837184	-0.24786880754685592
2953	2525760992.0	0.2150348868662932	-0.16320670394926565	0.9628725612543011	-0.20366143404858816	-0.9717543020628352	-0.11922917723294552	0.9551345547678995	-0.17046157399364026	-0.24219998777856627
2954	2525777659.0	0.20569433580066568	-0.1763989967237202	0.9625867411170737	-0.20657425376753924	-0.9692828557791582	-0.13348341909385014	0.9565651665725172	-0.17138885450187546	-0.2358154843360114
2955	2525794326.0	0.1950488422030448	-0.18931219416839482	0.9623496465913	-0.20561188114713064	-0.967284318625198	-0.14860955983019736	0.9589993240281196	-0.16888439857172938	-0.2275925227960604
2956	2525810993.0	0.1834225181654546	-0.20208958234035387	0.962037411195295	-0.20186898489401162	-0.9655274009671799	-0.16433426581034216	0.962083724406408	-0.16406291077225293	-0.21789508608784863
2957	2525827660.0	0.17122992735218265	-0.21485449365059778	0.9615185170016809	-0.1980145566246681	-0.9635227380184105	-0.18003935315991837	0.9651272182172166	-0.1595665374683895	-0.2075282457321092
2958	2525844327.0	0.15889580496929998	-0.22674670579350517	0.9609048103610222	-0.19286555962021262	-0.9616477080910353	-0.19502964245376014	0.9682742375358029	-0.15433605196146782	-0.19653341697891147
2959	2525860994.0	0.14676138135189293	-0.2368917868067931	0.960387098146976	-0.18355967247115557	-0.9605589587797008	-0.20888354016135202	0.9719912260848689	-0.14563230428562884	-0.18445673845780658
2960	2525877661.0	0.13525041613534958	-0.24568234556287497	0.9598684857906	-0.1724995153022511	-0.959813863204394	-0.22136229403659946	0.975679887132918	-0.1356375061676584	-0.17219530993878784
2961	2525894328.0	0.1253158134210728	-0.25397913856501453	0.9590571120013595	-0.16637637082384837	-0.9583676282807811	-0.23205687297504435	0.9780668945108512	-0.130484045910769	-0.16235474623384488
2962	2525910995.0	0.1176947554897267	-0.26327347482203056	0.9575150244175531	-0.1734974967148578	-0.9548379781809642	-0.2412116374824539	0.9777763359602704	-0.13773711510853742	-0.1580567112073581
2963	2525927662.0	0.11392061168013104	-0.27281550760265116	0.955297750989676	-0.1897318701683352	-0.9498343077189887	-0.24862945385134022	0.9752045486342089	-0.15292640939843416	-0.15996750179849567
2964	2525944329.0	0.11731590235932013	-0.2797609894880935	0.9528750011487663	-0.19149003580584917	-0.9478670378733995	-0.25471483015360963	0.9744580777235587	-0.15258396794470414	-0.16477131875892853
2965	2525960996.0	0.12927456802753473	-0.2807380747725505	0.9510384952431189	-0.18190942890919481	-0.9495240657407469	-0.2555640981301791	0.9747805115692582	-0.1399649311512104	-0.17381821628532512
2966	2525977663.0	0.14924985092378742	-0.2737047597150362	0.9501632420318951	-0.16729113584219607	-0.9540630931295309	-0.2485503775831776	0.9745451030444179	-0.12185778119367874	-0.1881821545596138
2967	2525994330.0	0.16990568313263776	-0.2625459597974452	0.949842975356069	-0.15842336227001325	-0.958597669006126	-0.23662744401925534	0.9726428415026225	-0.1102729702604402	-0.2044646055033591
2968	2526010997.0	0.19100169488463126	-0.24990310670568386	0.949245379135472	-0.1701884073079613	-0.9608340089318039	-0.21870965524644292	0.9667234654073409	-0.11977664437980401	-0.22605153592032134
2969	2526027664.0	0.21177931103032543	-0.23514165251342306	0.9486084158770558	-0.18943628984736088	-0.9620928131012569	-0.1961920260045668	0.9587822565673539	-0.13815144672484092	-0.248295715346532
2970	2526044331.0	0.2315538270176946	-0.2164670761885394	0.9484328284701269	-0.19569476236004613	-0.9653645509517085	-0.17255388651274034	0.9529356668623046	-0.14564782419312566	-0.26589532927357645
2971	2526060998.0	0.25026040651509734	-0.19469185105831457	0.9484011872949051	-0.19403426454118072	-0.9697845421436782	-0.14788051258749452	0.9485359419204217	-0.14701368967094214	-0.28047556388119554
2972	2526077665.0	0.26798339138432226	-0.17028074755499228	0.9482559617288312	-0.19172908059215105	-0.9739953285388097	-0.12071892825843517	0.9441529863308415	-0.14945757590931852	-0.2936623425055802
2973	2526094332.0	0.28445780115956154	-0.1450777461544993	0.9476477230121952	-0.1914710699459209	-0.9771654439395323	-0.09212233466549397	0.939373508639259	-0.15524220670032907	-0.3057405248336908
2974	2526110999.0	0.29913791097385856	-0.12129208597629905	0.9464696192153842	-0.19570878303415407	-0.9786004673316493	-0.06355468182257112	0.9339242916112025	-0.16622080260242994	-0.31647442601372666
2975	2526127666.0	0.3112250584137426	-0.09959045269806945	0.9451035418126188	-0.19927901911075996	-0.9792226097591087	-0.03756265537491099	0.9292076385596582	-0.17664886715729178	-0.32460490164880373
2976	2526144333.0	0.3207735339453403	-0.08111719584786418	0.9436759721737101	-0.20179586383584242	-0.9793035913039683	-0.015585422608850319	0.9254095143551118	-0.18543051689764972	-0.3305037883959982
2977	2526161000.0	0.32824601134874726	-0.0668678487286703	0.9422225038917494	-0.20948076538299837	-0.9778061975919135	0.00358453419523469	0.9210713137255937	-0.19855410032845794	-0.33496851236282704
2978	2526177667.0	0.3336542107655533	-0.055906635785088976	0.9410362988289076	-0.2255413909409874	-0.9739827981100424	0.0221040710760958	0.9153174032054785	-0.21961775215343093	-0.3375827222004315
2979	2526194334.0	0.3367141963539834	-0.04615337267727551	0.9404751012994463	-0.2431774728126987	-0.9691771354810576	0.03950185789505578	0.9096638206997796	-0.242003194712889	-0.3375591608276024
2980	2526211001.0	0.3369063722438341	-0.03685904075642524	0.9408164047549424	-0.2539900131963506	-0.9657471434500322	0.05311805827231192	0.9066328747282535	-0.25685378337221215	-0.3347281948527252
2981	2526227668.0	0.334047930686618	-0.02962197296976435	0.942090504527759	-0.26067894274397296	-0.9634236910915304	0.06213920061809808	0.9057916254933434	-0.2663406280704285	-0.3295515149793378
2982	2526244335.0	0.3287282114874601	-0.025926702419432485	0.9440686251930577	-0.2725688387362431	-0.9596908935695638	0.06855375226512478	0.9042366897678018	-0.2798592412290622	-0.3225442821946499
2983	2526261002.0	0.3217636198224844	-0.024454083158781365	0.9465041842356511	-0.28764876630667147	-0.9549411141485695	0.07311399148548159	0.902067824612419	-0.2957861834595263	-0.3142994964575441
2984	2526277669.0	0.3135379522680818	-0.024648365040256998	0.9492557140140798	-0.3018092280121144	-0.9504130005357513	0.07500878814753348	0.900336127440341	-0.31001223607056594	-0.3054296500215035
2985	2526294336.0	0.30596998457742536	-0.024872139216191136	0.9517162104474739	-0.31042586218549006	-0.947631593006286	0.07503431230286511	0.9000100847346573	-0.31839557256214973	-0.297667779157798
2986	2526311003.0	0.30252534889638794	-0.024909134520737508	0.9528157997706309	-0.31269717919352885	-0.9469244979316547	0.07452831234701585	0.9003881870612971	-0.3204895165747423	-0.29425768021609744
2987	2526327670.0	0.3022438382248712	-0.025527445000196686	0.9528887720016748	-0.3085171092494224	-0.9484557713914867	0.0724488993329756	0.9019234200060877	-0.31587972278375465	-0.2945405662698781
2988	2526344337.0	0.3039897868558867	-0.025158277230496157	0.9523430424873729	-0.30181907847268896	-0.9507008206518165	0.07122635384364001	0.9036013796786775	-0.3090873835968657	-0.29659658788333104
2989	2526361004.0	0.308242377353435	-0.026571165639551975	0.9509367013424491	-0.3099109979998907	-0.947883710389554	0.07397056777424427	0.8994119246053026	-0.31750660581267875	-0.300412624806445
2990	2526377671.0	0.3139895695434815	-0.029151821087164326	0.9489787782375333	-0.3220974166530162	-0.943521741586874	0.07758851292765989	0.8931202631243749	-0.3300255967045199	-0.305645711758685
2991	2526394338.0	0.32233938169027737	-0.029690682222379	0.9461584362043705	-0.3230910414081785	-0.9429394854087904	0.08048171108260987	0.8897805920412677	-0.3316377394781475	-0.31353932413736557
2992	2526411005.0	0.33266697864466865	-0.028561765981306164	0.9426117476689204	-0.31907118060422557	-0.9440005795618572	0.08400290170406782	0.8874267648810539	-0.32870523468741225	-0.3231510570334562
2993	2526427672.0	0.3436227753369327	-0.027576846115645676	0.938702778214733	-0.31721900496104394	-0.944224883440733	0.08838253437676194	0.8839092097954797	-0.3281446130133	-0.3332050746748655
2994	2526444339.0	0.35433992935586467	-0.030599340377173684	0.9346159076500695	-0.32530390185891783	-0.9410723472248232	0.09252139603424561	0.8767100922764861	-0.336818226432662	-0.3434135938534053
2995	2526461006.0	0.36450628789294043	-0.037651500289993645	0.9304394287713854	-0.3425886850180356	-0.9345271880271685	0.09639464578308757	0.8658915399656718	-0.3538944748988692	-0.35354001421611625
2996	2526477673.0	0.3766076797345492	-0.04366255338249489	0.9253433076415911	-0.35966741801846697	-0.9274201891282015	0.10262134872111464	0.8537013552647607	-0.37146382627320806	-0.3649775634057242
2997	2526494340.0	0.3894529760742424	-0.04939781627217879	0.9197207376016131	-0.37620315295142975	-0.9199975574746995	0.1098894078152643	0.8407125353747964	-0.3887985982332322	-0.37687940097006467
2998	2526511007.0	0.4014679169011254	-0.055280509149736756	0.9142032470994711	-0.39009917876252526	-0.9134269844248859	0.11607659046191085	0.828641142128409	-0.40323096288926613	-0.38827650989922236
2999	2526527674.0	0.4120424285376215	-0.06037963221789572	0.9091618871785436	-0.3994566841313515	-0.9087736939074764	0.12068442635463025	0.818935525293417	-0.4128978969127745	-0.3985723675035729
3000	2526544341.0	0.42260386750769463	-0.06578974794530232	0.903923492466499	-0.40523349269758363	-0.905829397674995	0.12352699585059781	0.8106736628037553	-0.4185030601716666	-0.40946721610318676
3001	2526561008.0	0.43227241493044266	-0.07121001184104264	0.8989269678365432	-0.41156430659908644	-0.9025711317248688	0.1264127118232279	0.8023436799924433	-0.42461098241859896	-0.41946410190348327
3002	2526577675.0	0.4413082999588934	-0.07596368140135801	0.8941344996673286	-0.4186390399820765	-0.8987613842838122	0.13026637449138842	0.7937180472877483	-0.4318072408241881	-0.4284322212223597
3003	2526594342.0	0.44929917542074	-0.07989905963907426	0.8898013212144804	-0.42296967325092594	-0.8963165078154409	0.1330915975091508	0.7869097193936851	-0.4361569191086214	-0.4365091470260703
3004	2526611009.0	0.45649591837084036	-0.0822155487449222	0.8859187773466227	-0.42406135008552026	-0.8954530411565136	0.13540983142740154	0.7821658697964322	-0.4374979481416146	-0.4436350949794982
3005	2526627676.0	0.4631806016196977	-0.08349838332846393	0.8823217951885514	-0.4242944310514633	-0.8949403330316756	0.13804360214029826	0.7780989436195953	-0.4383033427829255	-0.4499469009154117
3006	2526644343.0	0.46957921050050433	-0.08363987422340216	0.8789196416656173	-0.4244261127416735	-0.8943136865132867	0.14165276184391035	0.7741820457028927	-0.4395536389963217	-0.4554500615395456
3007	2526661010.0	0.4751090967540786	-0.08301335132904722	0.8760023571216254	-0.4224393886833534	-0.8948282191157404	0.1443170854853534	0.7718913842441553	-0.4386242603587637	-0.4602091363221394
3008	2526677677.0	0.4794928820902046	-0.08143582262492063	0.8737589958439522	-0.4197088374772652	-0.8957017883678968	0.14684276644776925	0.7706692336977724	-0.4371344336791075	-0.4636619664407835
3009	2526694344.0	0.48261014260471935	-0.07934380672192193	0.872233919651103	-0.4178981143263884	-0.8960733475246243	0.14971213009794015	0.7697068378918699	-0.4367575027299337	-0.4656117132457157
3010	2526711011.0	0.48482149351121684	-0.07768946684673944	0.8711558219805586	-0.4166062628066895	-0.8963031905901571	0.15192041445489932	0.7690171267402287	-0.4365832535484776	-0.466912969943253
3011	2526727678.0	0.48641347430915516	-0.07679522253450552	0.8703473018320746	-0.4158563829782233	-0.8964138472445969	0.15331563261588727	0.7684174651494889	-0.4365142704013423	-0.4679635573302879
3012	2526744345.0	0.4874727901836423	-0.07631119114682144	0.8697970343340613	-0.4147849769917516	-0.8968304470269619	0.15378092257289874	0.768325257747347	-0.43574275827737297	-0.4688331759979239
3013	2526761012.0	0.48835372774308083	-0.07602962327989463	0.8693274026414644	-0.4136277487178537	-0.8973478683391154	0.15387946152052218	0.7683896941591795	-0.43472554510997286	-0.46967113849884334
3014	2526777679.0	0.48909336481049437	-0.0761539586787505	0.8689006013784915	-0.41446137583372483	-0.8968230277160536	0.15469397176434083	0.767469509778965	-0.4357855338762016	-0.4701930667543595
3015	2526794346.0	0.4896231745797114	-0.07621499149295757	0.868596812097658	-0.4160138220924367	-0.8958958983080787	0.15589432068809844	0.7662908369167207	-0.43767775185230695	-0.4703578837342716
3016	2526811013.0	0.49011326276962436	-0.07585756418598644	0.8683516681696889	-0.418091307709801	-0.8945891723759523	0.1578286130117626	0.7648455060172747	-0.4404041809786519	-0.4701654063217552
3017	2526827680.0	0.4902328570987343	-0.07524363387998756	0.8683375734018116	-0.41913164696313987	-0.893864153040088	0.1591714120811027	0.7641991941469044	-0.4419788133728366	-0.46973856579459333
3018	2526844347.0	0.4896356815978925	-0.07481121502968222	0.8687117942171326	-0.41998961220156883	-0.8933513940408855	0.1597873975255316	0.7641110030283185	-0.44308754086634966	-0.4688366519162807
3019	2526861014.0	0.48894653204570343	-0.0739999341960817	0.8691693152311901	-0.42228670808481544	-0.8919383334797563	0.16161666202543978	0.7632858081841756	-0.44606055531545374	-0.4673593435637071
3020	2526877681.0	0.48755801650303165	-0.07402050598839147	0.869947208304534	-0.42493404935882123	-0.8905413629381558	0.16237960029439408	0.7627045523917795	-0.44883966579333734	-0.46564441387326955
3021	2526894348.0	0.48599780702169937	-0.07390599049403043	0.8708295103745599	-0.42681238476740924	-0.8895840456548216	0.16270038084023508	0.7626515061148548	-0.45075284833875096	-0.46387988740108915
3022	2526911015.0	0.4839980572498003	-0.07336241387159509	0.8719884384608273	-0.42692085153193454	-0.8896387814091518	0.16211546854044384	0.7638615496971077	-0.4507336184974141	-0.46190338605660863
3023	2526927682.0	0.48179028475554175	-0.07261543740539583	0.8732726491569498	-0.42687175951087836	-0.8897705160011264	0.1615206791317335	0.7652833608848824	-0.4505945262711394	-0.4596802698041614
3024	2526944349.0	0.4791430046854369	-0.0716601788065136	0.8748067214158967	-0.4271858375515405	-0.8896968913857339	0.16109531853517856	0.7667687012759457	-0.45089273694747	-0.4569042553004071
3025	2526961016.0	0.475687016870558	-0.07081002869617045	0.8767598313203208	-0.4285670145911887	-0.889101646447591	0.16071271352503091	0.7681485377094625	-0.4521992946923185	-0.45328095249479017
3026	2526977683.0	0.4718295251908078	-0.07007025986497145	0.8789010512228737	-0.43131626471286344	-0.8877605777974342	0.16077137899174956	0.768988412755589	-0.45494100187960745	-0.4490940946576997
3027	2526994350.0	0.4678321529813534	-0.06981986007533858	0.8810551990516213	-0.4335842610753329	-0.8868029337792446	0.15995388456765522	0.7701543775014134	-0.4568432376423944	-0.44514771821927324
3028	2527011017.0	0.463782466154283	-0.07012282717139023	0.8831696401016865	-0.4356852889041202	-0.8860442561471503	0.15844211934071134	0.7714169774644479	-0.4582666966495975	-0.44148327445270336
3029	2527027684.0	0.45933964980151626	-0.0707228319323312	0.8854407756387164	-0.43807386816125293	-0.8852014567454399	0.156555635510154	0.77272140655896	-0.45980067640144057	-0.4375899516971571
3030	2527044351.0	0.45475860572351395	-0.07142349519668373	0.8877461883073874	-0.44047366897466345	-0.8843738493374261	0.15448573250660613	0.7740656028143899	-0.46128253700090727	-0.43363678764330227
3031	2527061018.0	0.4501963484749144	-0.07201151869671063	0.8900211171623104	-0.44301299086934864	-0.8834307230317785	0.1526094607963214	0.7752823600088217	-0.46299513904418343	-0.4296193239143339
3032	2527077685.0	0.445646959643359	-0.07265259136356797	0.8922557863801103	-0.44568544175075625	-0.88240484761968	0.15075202124257836	0.7763783062219498	-0.46484759423433397	-0.42562123979248084
3033	2527094352.0	0.4412227596944217	-0.07315770751169057	0.8944106585675692	-0.44808309057979545	-0.8814973346724977	0.1489429182665018	0.777524289179507	-0.4664872975729531	-0.42171741834904747
3034	2527111019.0	0.4371808398483571	-0.0737621838329307	0.8963437139321515	-0.450309811417917	-0.8806614322443348	0.14716152859398118	0.7785203831694103	-0.4679685694505071	-0.41822413966221605
3035	2527127686.0	0.43314460774006475	-0.07456403905346823	0.898234909623167	-0.4528628552140803	-0.8796513930494463	0.14535701246764857	0.7792951835813289	-0.469737831972476	-0.4147835412124516
3036	2527144353.0	0.42937400993157	-0.07542589030636379	0.8999716077003633	-0.4550010437054368	-0.8788651514370038	0.14342278695024616	0.7801358918946413	-0.4710700379573136	-0.41168071307343007
3037	2527161020.0	0.42578899808190673	-0.07595505715858686	0.9016288362760154	-0.4563396127063834	-0.8784829659601975	0.14149853848277863	0.7813180447086794	-0.4716974748817406	-0.40870968327505497
3038	2527177687.0	0.42267055770303275	-0.0762111857289543	0.9030733385615998	-0.4573483445464251	-0.8782075825595239	0.13994260850649173	0.7824206614038585	-0.47216871677901706	-0.4060475483285236
3039	2527194354.0	0.4200300677402232	-0.07604392185733141	0.9043185634181683	-0.4583521165567258	-0.8778219146885892	0.1390756029662604	0.7832547985439433	-0.47291226251918583	-0.4035664908250828
3040	2527211021.0	0.41759125024058397	-0.07566991189711311	0.9054786646608466	-0.45828876288710835	-0.8780280148878337	0.1379790378410237	0.7845947728183704	-0.47258953596711606	-0.4013354867943729
3041	2527227688.0	0.4154705097517015	-0.07457951950369146	0.906544069969717	-0.4573030794575169	-0.8786484677693097	0.13729808303583677	0.7862939329826555	-0.47160869940793315	-0.3991579707301666
3042	2527244355.0	0.4136643836447641	-0.07256270097738035	0.907533157592969	-0.45528582324891576	-0.8797128602034439	0.13718637957622964	0.7884139755562142	-0.4699360999322606	-0.3969426471520815
3043	2527261022.0	0.4115023732384061	-0.07000345176452344	0.9087162998209133	-0.45257653859495944	-0.8811284437619654	0.13706619680658885	0.791100672185636	-0.46766674281444187	-0.3942683656251994
3044	2527277689.0	0.4100532578107583	-0.06714039373577846	0.9095869905005176	-0.4504688876312259	-0.8820672387513324	0.13796799483172228	0.7930536596189881	-0.4663148655689682	-0.3919392033394024
3045	2527294356.0	0.40843297731229733	-0.0640713658136916	0.9105368543483459	-0.44797390078980903	-0.8832072291781669	0.13879616182945298	0.7952998725354954	-0.4645856760708335	-0.3894332578694735
3046	2527311023.0	0.40553913504976735	-0.06032161570777955	0.9120851454888897	-0.4446461028266107	-0.8848264158410677	0.13918353735609998	0.7986412543715691	-0.4619994767402368	-0.385653510690041
3047	2527327690.0	0.4017966979081773	-0.05623591016121193	0.9140005120121243	-0.4415586965004889	-0.8863091337422487	0.13957806772503487	0.8022377023643769	-0.45966688139717593	-0.38094753845079593
3048	2527344357.0	0.39757680413528107	-0.05211544803005541	0.9160876949780536	-0.4385800524711913	-0.887745931269592	0.13983811743817326	0.8059653977609361	-0.4573741811590503	-0.37580398616984456
3049	2527361024.0	0.3931392005784664	-0.048127083249925096	0.9182185757358535	-0.4348854825992066	-0.8896036241906198	0.13957080228819374	0.8101334371527815	-0.45419068207611835	-0.3706678274712425
3050	2527377691.0	0.3882440038013202	-0.044206989713155315	0.9204957010072461	-0.4312667396792635	-0.8914391941371141	0.13908688796069485	0.8144173332872642	-0.45097883012029905	-0.3651609262018427
3051	2527394358.0	0.38302414498413717	-0.04096967282038633	0.9228293397308961	-0.42873508938397087	-0.892779831423411	0.1383126738028905	0.8182167973649097	-0.44862641307949824	-0.35952136792871436
3052	2527411025.0	0.3777186885264827	-0.03854444535353724	0.925117786052253	-0.42705862662420185	-0.8937657446788021	0.13712666795556938	0.8215531156070706	-0.4468748363592816	-0.35405276282664544
3053	2527427692.0	0.37328412278923756	-0.037551647271161004	0.9269567613760049	-0.42718427454750674	-0.8939061614281842	0.13581373325275053	0.8235123309658392	-0.44667846192529953	-0.3497224505222091
3054	2527444359.0	0.36962201510086184	-0.03742141432889198	0.9284283514102765	-0.42762312723635093	-0.893938210279945	0.13421228428908022	0.8249351653344537	-0.4466252500151716	-0.3464215048802593
3055	2527461026.0	0.3662123967785479	-0.037631849446952	0.9297700384250471	-0.42692839907916175	-0.8946071891275731	0.1319474108156995	0.8268135355117354	-0.445266011580117	-0.3436823481445035
3056	2527477693.0	0.36249387428586377	-0.037780945288330786	0.9312200552384732	-0.4250067113854151	-0.8959378218936808	0.12909188424437093	0.8294380545782665	-0.44256979051165224	-0.34082912748750416
3057	2527494360.0	0.35810346687160144	-0.037343995128039015	0.9329347957078337	-0.42231811730286467	-0.8976231718628249	0.12617467706590632	0.8327120239388308	-0.43917885577837074	-0.33721301550340166
3058	2527511027.0	0.3533893155610782	-0.036938742748372805	0.9347467683450114	-0.42067004584031925	-0.8987653906339977	0.12352119304484349	0.8355553268216155	-0.4368710357561911	-0.3331531088513753
3059	2527527694.0	0.34994688241910404	-0.036688734938086054	0.9360508085642536	-0.42270200550884507	-0.8979055992338623	0.12283545662095985	0.8359785846682619	-0.43865643913331787	-0.3297276669964589
3060	2527544361.0	0.34845640079991175	-0.037041306542294206	0.936592802850423	-0.4262544263661297	-0.8961823709586363	0.12314350159971621	0.8347965624898399	-0.44213696926698787	-0.3280695043166152
3061	2527561028.0	0.3471539899765593	-0.03755064199789321	0.9370560583705232	-0.42674400667188583	-0.8960800834367849	0.12218852989356366	0.8350890132273211	-0.44230129250712236	-0.32710228772289046
3062	2527577695.0	0.34545401299776357	-0.03772083414351074	0.9376772704802325	-0.42422888812087967	-0.8975439997585299	0.12018576862999489	0.8370731003845863	-0.4393084419505028	-0.3260624440863415
3063	2527594362.0	0.34356567119324016	-0.037047018079624544	0.9383976492025898	-0.42062356682181345	-0.8994644446593094	0.11848851348470679	0.8396656743083131	-0.43542075196886065	-0.32460795452859437
3064	2527611029.0	0.34133798530482684	-0.034657699465300396	0.9393014551547412	-0.41676441591049673	-0.9012976154506551	0.11819488150400193	0.8424937990387963	-0.4318118250473643	-0.3220912080924287
3065	2527627696.0	0.33914631810918855	-0.031690177944376535	0.9401997168340537	-0.41329017101851034	-0.902836301167945	0.11865010675458357	0.8450863917094344	-0.4288150486109803	-0.3192908464586655
3066	2527644363.0	0.33739754239513964	-0.028205904322344294	0.940939597076815	-0.4097068377897801	-0.904316117293648	0.11980261713017776	0.8475277018800146	-0.4259304954617595	-0.3166701873901005
3067	2527661030.0	0.33622244879462765	-0.02431679661750022	0.9414686178141084	-0.4055727666884831	-0.9059596464662996	0.12144072585136909	0.8499795267223755	-0.42266513030639435	-0.3144662013251751
3068	2527677697.0	0.3354806225670211	-0.02081977316280248	0.941817014566786	-0.4010274180079284	-0.907800621846973	0.12278045846201874	0.8524258101957838	-0.4188849102315559	-0.31289881765894095
3069	2527694364.0	0.33512752198200013	-0.017404325821749445	0.9420120134334249	-0.3958463217983014	-0.9099045035452606	0.12401404737693561	0.8549825925297896	-0.41445251099582403	-0.31182347987330383
3070	2527711031.0	0.33515625323553844	-0.014518655909195682	0.9420506857636196	-0.3919409152138609	-0.9114045447536611	0.1253956729065754	0.8567686997658335	-0.41125535185935536	-0.31115338768620376
3071	2527727698.0	0.3354018521763429	-0.011864252567627714	0.9420004443033404	-0.38884355857690533	-0.9125145904532401	0.1269559339424694	0.8580829123749801	-0.4088720603330183	-0.3106724219642052
3072	2527744365.0	0.33566064878030993	-0.009089338603827185	0.9419391237145459	-0.38698034903925416	-0.913007030570005	0.12909055576299722	0.8588236945484439	-0.4078425505676025	-0.30997792764755705
3073	2527761032.0	0.3358024164703186	-0.006568004322642762	0.9419095489546289	-0.38713878213686526	-0.9125733804081422	0.13165632812759562	0.8586968617959887	-0.4088602287942348	-0.3089870755420791
3074	2527777699.0	0.33593039170968364	-0.004395006866077966	0.9418765608297226	-0.38839253076900476	-0.9116593180261368	0.1342703612081515	0.858080423951407	-0.41092331616831745	-0.30796105964976617
3075	2527794366.0	0.3358316423383564	-0.0022981871358650208	0.9419192249552035	-0.38870515553132223	-0.9112149770911587	0.1363655659913094	0.8579775113997412	-0.4119247308194157	-0.30690813946791823
3076	2527811033.0	0.33556249677788996	-0.00020427780597120915	0.9420179239413475	-0.38722301544015536	-0.9116395603876761	0.13773760651905395	0.858752669323142	-0.41099059625098777	-0.3059911481132023
3077	2527827700.0	0.3352747601437491	0.0017081253537921115	0.9421188446891017	-0.3850505573394569	-0.9124160125910115	0.13868341018338534	0.859841208307165	-0.40926043331269546	-0.30525234515328387
3078	2527844367.0	0.33510032142772445	0.0033187582585658126	0.9421766078727793	-0.3830770686017283	-0.9131274600139636	0.13946397843154348	0.8607901800616353	-0.40766067704902387	-0.3047179651700717
3079	2527861034.0	0.33489131443537257	0.004644280803531825	0.9422453174049562	-0.38136157770310536	-0.9137561202234947	0.14004677720641975	0.8616328420896844	-0.4062366101300131	-0.3042378379204813
3080	2527877701.0	0.3347156094702109	0.0054865445369755295	0.9423032200974533	-0.38022092784447614	-0.9141800647605984	0.14038110707425644	0.8622050259689229	-0.40527115246875406	-0.30390423848735165
3081	2527894368.0	0.3345374150415158	0.005886063409405368	0.9423640868554369	-0.3796281848481058	-0.9144113769176525	0.140478735161217	0.8625353089620582	-0.40474336068810746	-0.3036703027505713
3082	2527911035.0	0.3343355835124307	0.005723324167590277	0.9424367146699427	-0.3791612993827272	-0.9146685769756935	0.14006463987624393	0.8628188840352327	-0.4041641224227266	-0.30363618937548104
3083	2527927702.0	0.3340998281194271	0.005043315511800289	0.9425242011848913	-0.378843552643196	-0.9149343747404652	0.13918567648632557	0.8630497479700988	-0.40357112741984225	-0.303768789775754
3084	2527944369.0	0.333843178917015	0.004004064664536566	0.9426201246296115	-0.3785654142203522	-0.9152347249139223	0.13796240599493176	0.8632710808585883	-0.40290118612123677	-0.3040290696222082
3085	2527961036.0	0.33358004183976997	0.0027170582035560276	0.9427178651542019	-0.3782867713952952	-0.9155698482893178	0.13649531673577572	0.863494918498946	-0.4021498110135009	-0.3043880011240661
3086	2527977703.0	0.33314040443250753	0.0014005761073613288	0.9428761898155629	-0.3781068042508925	-0.9158725469832375	0.13495451923375948	0.8637434315314491	-0.4014667060529494	-0.3045845833545618
3087	2527994370.0	0.33265475118989646	0.0003953085738667983	0.9430485990880424	-0.3771365881226658	-0.9164976470054621	0.13341685400520437	0.864354562902275	-0.40003988146756403	-0.3047282114039238
3088	2528011037.0	0.3319783802191254	-0.0001655648950106281	0.9432869805395128	-0.3754008759417886	-0.917421167790265	0.13195674758224454	0.8653695958428536	-0.3979175460803556	-0.3046261464683629
3089	2528027704.0	0.3308979288900679	-0.0005437084072192067	0.943666394992124	-0.37365110595781725	-0.9183445145485611	0.13049215920915475	0.8665399077207948	-0.3957815773627359	-0.30408145511934975
3090	2528044371.0	0.32930987993894123	-0.0009379907701394241	0.9442214375600223	-0.37261969949979	-0.918968122187797	0.1290432096133702	0.8675883600644294	-0.3943307121895897	-0.3029747958242806
3091	2528061038.0	0.3272790388418504	-0.0013684104755690985	0.944926747524656	-0.37289735592932693	-0.9190259540048198	0.12782354167542048	0.8682372905350653	-0.3941946515597358	-0.30128820754557784
3092	2528077705.0	0.3248232741561437	-0.0014068246605285217	0.9457736840337956	-0.3720558365203164	-0.9195618716540219	0.12641368087086166	0.869519577167559	-0.39294272489069826	-0.2992185152657212
3093	2528094372.0	0.3221641416624052	-0.001203343920823663	0.9466830608975391	-0.3708089843750722	-0.9202558270016834	0.12501963836203886	0.8710401614929433	-0.39131542882035164	-0.2969196393529588
3094	2528111039.0	0.31951039845349477	-0.000755748447264809	0.9475824682445184	-0.36916042512878106	-0.9210911079991275	0.12374066139987064	0.8727162687831749	-0.3893463748504976	-0.2945771793468549
3095	2528127706.0	0.3169634130658567	-0.0002224544500396275	0.9484377392805816	-0.36725241019342886	-0.9220168462846365	0.12251776350574706	0.8744483186471116	-0.3871496941511776	-0.29232730343553104
3096	2528144373.0	0.3147051638580929	7.032433266776494e-05	0.94918947260046	-0.36626160329256485	-0.9225451087590921	0.12150292283824041	0.8756786498451423	-0.3858892553041141	-0.29030395251567875
3097	2528161040.0	0.31273756106829403	8.339767236520412e-05	0.9498395711602476	-0.3667683833787811	-0.9224307582262398	0.12084059430456251	0.8761713136429259	-0.3861625167244908	-0.2884481579525806
3098	2528177707.0	0.3109313308429697	-0.00027266312239648816	0.9504323401247673	-0.36813247163148954	-0.92197499313962	0.12016902827138304	0.8762420846037414	-0.3872493223751586	-0.2867712877700104
3099	2528194374.0	0.3094228359102007	-0.0005910115441619956	0.9509243709794402	-0.3690061593168374	-0.9217128209613088	0.11949866133887715	0.8764085594079545	-0.3878725646148507	-0.2854170818566624
3100	2528211041.0	0.3083375640002986	-0.0010619477151653234	0.9512764156087401	-0.3694866877728762	-0.9216192595071397	0.1187330116864761	0.8765885774894577	-0.38809381954955424	-0.28456221295605477
3101	2528227708.0	0.3076210444997728	-0.0018239664739663763	0.9515072076065272	-0.3710231780074929	-0.9210721713445675	0.11818568676376967	0.8761912430297905	-0.3893876324704028	-0.2840179172464396
3102	2528244375.0	0.30706611586398636	-0.002864538107494291	0.9516838734105124	-0.373173767116624	-0.9202733117770597	0.11763660640663906	0.875472295406424	-0.3912656719574482	-0.28365372185729176
3103	2528261042.0	0.30682816089325216	-0.003934901002785013	0.951756794689149	-0.3744745978594215	-0.9198360561888583	0.11692050843608207	0.8750001458519245	-0.39228324752533805	-0.28370512591436414
3104	2528277709.0	0.30667411636758135	-0.004918393315508418	0.9518018679102058	-0.3756593976932684	-0.919433075517537	0.11628773180819191	0.874546169893216	-0.39321575381914325	-0.2838139666639908
3105	2528294376.0	0.30669041490433513	-0.0053884928555517075	0.9517940709788819	-0.37675360437769534	-0.9189968441668821	0.11619604984562384	0.8740696259419052	-0.3942280616040128	-0.2838776575388082
3106	2528311043.0	0.3068743691657259	-0.005103807016788947	0.9517363462131059	-0.3773537477101437	-0.9186808573324627	0.1167460126085702	0.8737461133751879	-0.3949676360473431	-0.2838455492639023
3107	2528327710.0	0.3068021433679152	-0.004054304961173816	0.951764680704288	-0.37691720930614897	-0.9187529452013599	0.11758589631708374	0.8739598744528938	-0.3948120923871368	-0.28340351012500375
3108	2528344377.0	0.30659889722278444	-0.002113386546832713	0.951836461698687	-0.3754553783513509	-0.9191825080711977	0.11889817375799527	0.8746601483369505	-0.3938261678116961	-0.28261382566664617
3109	2528361044.0	0.30598912381596904	0.000321825599661707	0.9520349534206292	-0.37380536962298755	-0.9196523245336059	0.12045392322775278	0.8755799231065988	-0.392733368086058	-0.28128330886212155
3110	2528377711.0	0.3048542919577153	0.00225874401710241	0.9523963244103923	-0.3738083112769697	-0.9194693631664974	0.1218336432126039	0.8759744329004244	-0.39315517073244893	-0.279459844398294
3111	2528394378.0	0.3040431165456212	0.003432135080776555	0.952652089553166	-0.37712235270629557	-0.9178699159724512	0.12366708714122093	0.874835135537259	-0.39686652391139426	-0.27777769497926325
3112	2528411045.0	0.3043287751184014	0.0021418472881700734	0.9525646482654747	-0.3891353631666208	-0.9124709672772799	0.12637405987483138	0.8694582599343776	-0.4091358531909168	-0.27685770328026804
3113	2528427712.0	0.3056129476568126	-0.0011027959026491396	0.9521551922169578	-0.40545770494371686	-0.9049527241735563	0.12909150441695877	0.861513073450594	-0.42551069416885046	-0.27701240662045246
3114	2528444379.0	0.3077142625266798	-0.0031187149869722486	0.9514737023452052	-0.41354011090232334	-0.9010432116996683	0.13078878898759463	0.856911027652554	-0.43371811613855543	-0.2785535611344196
3115	2528461046.0	0.31067298858883374	-0.0044111053399630284	0.9505066208664525	-0.4164473799326543	-0.8995349313159557	0.13194122589102578	0.8544319012703763	-0.43682656683411414	-0.2812981987134137
3116	2528477713.0	0.31452582361380577	-0.005563149103859938	0.949232615143467	-0.4166119113080533	-0.8993363985265422	0.13277257865071065	0.852940807815119	-0.4372220187243053	-0.2851821956334853
3117	2528494380.0	0.31922675321363153	-0.007225880679751023	0.947650814741952	-0.4170265283388703	-0.8990179293837184	0.13362498758930327	0.8509895150319498	-0.43785220028568317	-0.2900039586120737
3118	2528511047.0	0.32477262335808843	-0.009029413827159771	0.9457490220999666	-0.4181522083615537	-0.898286591149558	0.13501826099925324	0.8483345293924214	-0.43931727697285544	-0.29551456206707377
3119	2528527714.0	0.3307548947192939	-0.010802914198202007	0.9436548609868205	-0.4208056443714784	-0.896711169656663	0.13722859715848093	0.8447033853870445	-0.44248432204746646	-0.30113753578366864
3120	2528544381.0	0.3361770555516809	-0.012461526191762606	0.9417163573420472	-0.4248714826023367	-0.8943879984986387	0.13983680278414343	0.8405172280161153	-0.44711834955252194	-0.3059672709646157
3121	2528561048.0	0.33965041285460684	-0.012987545629825042	0.940462078292479	-0.42652421317327344	-0.8933068144858847	0.1417040252427638	0.8382807958104586	-0.4492596786398654	-0.3089515310267776
3122	2528577715.0	0.340465660053092	-0.011996886735631013	0.9401804130236201	-0.42539963321227714	-0.8936931440562657	0.1426454216919949	0.8385214883278023	-0.4485182705035319	-0.30937529739306613
3123	2528594382.0	0.34080612213316175	-0.01056594244371506	0.9400742247167685	-0.4259665225804793	-0.8931431748993557	0.1443876406462613	0.8380952862039324	-0.4496483403627505	-0.3088893997076842
3124	2528611049.0	0.34217929700326566	-0.009205906641335637	0.9395895806070126	-0.42761579388735993	-0.8919297505011415	0.14698997581146236	0.8366947242097524	-0.4520802710292523	-0.30913648607966643
3125	2528627716.0	0.3440533113241775	-0.00826768507832204	0.9389137150720053	-0.4266024908500911	-0.892170291279063	0.148467121476541	0.8364434432568449	-0.45162353430980295	-0.31048115802759385
3126	2528644383.0	0.3450321086372232	-0.007640426692904795	0.9385597838653126	-0.4218436724505587	-0.8945414465516898	0.14779552230915674	0.8384514058803751	-0.4469197067496141	-0.31186858722234573
3127	2528661050.0	0.3453310734136488	-0.006999445294940787	0.93845482443245	-0.4170901643686529	-0.8969327579089654	0.14679040355809217	0.8407034224516441	-0.4421115646026244	-0.31265815185712365
3128	2528677717.0	0.3455043670169839	-0.006299556955103314	0.9383959974096027	-0.41521464450093826	-0.8977928983426123	0.14684927877770165	0.8415601769119978	-0.44037282757652213	-0.31280703535583443
3129	2528694384.0	0.34599023175137644	-0.005580832142569436	0.9382215164049617	-0.4152417120817341	-0.8976259444145009	0.14779033954019388	0.8413471816557414	-0.4407227226120433	-0.3128872028277425
3130	2528711051.0	0.34681428485469146	-0.004590552365835832	0.9379225867040977	-0.4140534831024539	-0.8980230721824286	0.14870869160462247	0.841593467745238	-0.4399244124358289	-0.31334796375840057
3131	2528727718.0	0.3474554252476566	-0.003248041476597102	0.9376908753382092	-0.41035009472951167	-0.8996837194807543	0.14893624359690436	0.8431414633508728	-0.4365302453757838	-0.31393282346818596
3132	2528744385.0	0.3480917040967422	-0.0021104934455634383	0.9374581117876373	-0.40611641448871194	-0.9016306480153861	0.1487670408463772	0.8449269929537455	-0.43250169985419845	-0.3147072547644398
3133	2528761052.0	0.3488867762793877	-0.0013393174967551158	0.9371639256640321	-0.40340639310556253	-0.9028262079087583	0.14888962460377075	0.8458967427168265	-0.4300035401502345	-0.31552441445841994
3134	2528777719.0	0.34985867030434137	-0.0006957846380588328	0.9368022345706781	-0.40206570255653584	-0.9033257878853977	0.14948475430272049	0.8461336074406911	-0.42895458597031333	-0.316316110140536
3135	2528794386.0	0.35087192249636023	-5.712594305792851e-05	0.9364234569575535	-0.40087204145958955	-0.9037460160049662	0.15014907569203595	0.8462803911114386	-0.4280690777103366	-0.3171220022775027
3136	2528811053.0	0.35204887908224963	0.0005045762882751881	0.9359814806606489	-0.3997155293924903	-0.9041445207730148	0.15083163169115635	0.8463386333492124	-0.42722643991085657	-0.3181013780883109
3137	2528827720.0	0.3534019375918648	0.0010418072629690134	0.9354709964204889	-0.39888984389353366	-0.9043639259793075	0.15169964345998355	0.8461642647529545	-0.42676082765985046	-0.3191883973927802
3138	2528844387.0	0.3547670325635275	0.0015805902971431918	0.9349533968815674	-0.3980412632630508	-0.9045921161053452	0.1525655800631605	0.8459926154205033	-0.42627526929716025	-0.32029032055247897
3139	2528861054.0	0.3561300333287816	0.002031055594138159	0.934434200023958	-0.39725483727271294	-0.9048021462583984	0.15336776189808	0.8457895681696903	-0.42582737222889905	-0.32142037184341526
3140	2528877721.0	0.35747528519426863	0.0024750868590291963	0.933919319010115	-0.39675676479612987	-0.9048682832988899	0.15426425207490208	0.8454557883554794	-0.4256844650968141	-0.32248604018074106
3141	2528894388.0	0.3587534098771534	0.0031527723792825757	0.933427046387579	-0.3956738465876147	-0.9051942695992725	0.1551307236210814	0.8454219053396216	-0.4249863460288624	-0.3234940612452724
3142	2528911055.0	0.3600762535399849	0.004026910112975263	0.932914184494775	-0.394438248489345	-0.9055582143864995	0.15614989108479319	0.845436904662475	-0.4242029046954736	-0.3244816418268632
3143	2528927722.0	0.3613593383102348	0.005229909241640074	0.9324119672469426	-0.39297214193171975	-0.905982696086539	0.15737931902687302	0.8455721875047604	-0.42328241451906595	-0.3253300989415585
3144	2528944389.0	0.36243974883272945	0.006591740481768554	0.9319838933283607	-0.3910822579775708	-0.9066048077317925	0.15850044193239485	0.8459858721995497	-0.4219292257654365	-0.3260117060532436
3145	2528961056.0	0.3633832277059935	0.007925826906733102	0.9316060385644881	-0.3892503892268747	-0.9072089255777267	0.1595496782786895	0.8464258764408732	-0.42060569018969696	-0.32657937637172996
3146	2528977723.0	0.36415136462682074	0.009258551531889564	0.9312937575566346	-0.3875912379753862	-0.9077375278966084	0.16057899206577916	0.8468570221029829	-0.41943635950127806	-0.3269653260564227
3147	2528994390.0	0.36469104600026464	0.010598425219798452	0.9310682651396156	-0.38606996242792413	-0.9082119114448975	0.16155837341502063	0.8473195531074061	-0.4183763823311092	-0.32712501834833674
3148	2529011057.0	0.365004691333178	0.011865278672024832	0.9309300674415919	-0.3844908560988608	-0.9087429821618289	0.16233599092004056	0.8479023274417502	-0.4171874968568228	-0.3271333605507117
3149	2529027724.0	0.36506618221032966	0.012976717917838054	0.9308911254268436	-0.3831773086851267	-0.9091888245886639	0.16294425841958088	0.8484702898246924	-0.4161817944542563	-0.3269417092535573
3150	2529044391.0	0.36490522764706906	0.014046363764009612	0.9309387060923239	-0.3818395944792536	-0.9096701948736806	0.16339724797682262	0.8491423313695767	-0.4150937679892211	-0.3265799517005765
3151	2529061058.0	0.3645912051318363	0.015093545851484591	0.9310453469161127	-0.3800925284225924	-0.9103651495362456	0.16360001328597218	0.8500605407721479	-0.41353050598895186	-0.32617418297389095
3152	2529077725.0	0.3641904328654854	0.01600807797050552	0.931186914668017	-0.3783483559151245	-0.911084972537105	0.16363585913052492	0.8510099001689537	-0.411907652583383	-0.32575180054402525
3153	2529094392.0	0.3637832687245281	0.016837001926715084	0.9313314387274907	-0.3767647191305254	-0.9117386058845454	0.1636492009091468	0.8518861894728629	-0.4104256691604775	-0.32533166196910523
3154	2529111059.0	0.36345522344806414	0.017637830708645025	0.931444688361156	-0.37524474054608736	-0.9123562862286843	0.16369908879252498	0.8526967135159004	-0.4090170093124448	-0.324982154667431
3155	2529127726.0	0.36322681012596986	0.018402322363878343	0.9315189954785293	-0.3737909830136186	-0.9129370136919738	0.163787392826473	0.8534322383314478	-0.40768537325098697	-0.3247245771631369
3156	2529144393.0	0.36320986474508044	0.01908219350642229	0.9315119237255335	-0.3724885213344106	-0.9134399273025036	0.1639506044017574	0.8540087210479558	-0.40652597592353273	-0.32466249440527395
3157	2529161060.0	0.36337290879265544	0.0196392299595729	0.9314367556641513	-0.3712580319945655	-0.9139129837132116	0.16410524635104656	0.8544750451798384	-0.4054347775499907	-0.32479999741056453
3158	2529177727.0	0.36377715663152776	0.019944787951214904	0.9312724551637195	-0.37050837855886076	-0.9141807171339672	0.16430811860072267	0.854628411492834	-0.40481578755528586	-0.3251683508818606
3159	2529194394.0	0.3644258670339936	0.02006550258480244	0.9310161991300372	-0.37026676338584397	-0.9142195649768797	0.1646362989903986	0.8544567346380348	-0.40472208071651333	-0.32573566892835487
3160	2529211061.0	0.3652596491227099	0.019912424133118195	0.9306926904665672	-0.3703143922465143	-0.9141541585849847	0.16489216244829005	0.8540799960295578	-0.40487735143734743	-0.32652976996780714
3161	2529227728.0	0.3661481353073921	0.019513886494029326	0.9303519502020824	-0.37062771312269005	-0.9140014452810389	0.1650347123777817	0.8535634957496512	-0.40524136790074905	-0.3274275377324959
3162	2529244395.0	0.3671307438514571	0.018957019225099597	0.9299761547164395	-0.3709693629185101	-0.9138550867374151	0.16507759454264656	0.8529928186654976	-0.4055977217222144	-0.32847182442157585
3163	2529261062.0	0.3681925749048835	0.018317679796996	0.9295690885521994	-0.3714373219213973	-0.9136561402554031	0.16512653710854505	0.8523312405800765	-0.40607501767586507	-0.3295975369306844
3164	2529277729.0	0.36919821511018014	0.017590413773216795	0.9291841880395645	-0.37203433438899397	-0.9134153828162812	0.16511448292117017	0.851635562899528	-0.4066483933054133	-0.3306870911102071
3165	2529294396.0	0.37020240414695	0.016781459275807764	0.9287995276637434	-0.3728768273164233	-0.9130709434763223	0.16511912012149588	0.8508308008142729	-0.40745531632785587	-0.33176364113915546
3166	2529311063.0	0.37108688746307805	0.015932784087970553	0.9284614522661513	-0.3736727777673268	-0.9127647324257275	0.16501272191997765	0.8500959811154354	-0.40817482728727394	-0.33276137585421345
3167	2529327730.0	0.37179291957737964	0.015060838477751748	0.928193512203396	-0.3741729032565419	-0.9126190089585877	0.1646851024106803	0.849567338955953	-0.4085336162811976	-0.3336699281438298
3168	2529344397.0	0.37238807916117384	0.014205608793050079	0.9279683826389078	-0.37462008084602116	-0.912504664517504	0.16430165020692372	0.8491094826496595	-0.4088195664503065	-0.33448415293076517
3169	2529361064.0	0.3728125875948391	0.01344915428100385	0.9278091909331176	-0.37517466632299734	-0.912335080505504	0.16397765283246118	0.848678233655293	-0.40922343667994043	-0.3350842201471006
3170	2529377731.0	0.37307321919318426	0.012785031683896303	0.9277138115203827	-0.3756803170348153	-0.9121861661344932	0.16364809105356357	0.8483399510299245	-0.40957653897372653	-0.3355091447469778
3171	2529394398.0	0.37315385444319915	0.01226582099221149	0.9276883908670902	-0.3757540277029767	-0.9122351894874324	0.16320499295615631	0.8482718382565665	-0.40948322150756744	-0.33579514547505024
3172	2529411065.0	0.37307086142555634	0.01181582478532936	0.9277276101528057	-0.3755224421999622	-0.912432971223452	0.16263138820202983	0.8484108838053468	-0.40905556995228143	-0.3359650471874194
3173	2529427732.0	0.37288161383025287	0.011480159195952327	0.9278079046937368	-0.3752700298884795	-0.9126292970267668	0.16211160006590977	0.8486057428127894	-0.408626935178367	-0.33599452541952046
3174	2529444399.0	0.3726129082822148	0.011238189985949026	0.9279188130797379	-0.375114977504342	-0.912768708530262	0.1616849973866306	0.8487923033542344	-0.4083221617960964	-0.33589378969069333
3175	2529461066.0	0.3722615357736247	0.011060271720684467	0.9280619695758076	-0.3749911443553746	-0.9128886170678983	0.1612948061250172	0.8490011723422466	-0.4080588722443428	-0.3356858146305354
3176	2529477733.0	0.37185124123680097	0.01098400387250592	0.9282273461009319	-0.37470536035289154	-0.913073324990411	0.1609130079072684	0.8493070983533931	-0.4076474639316229	-0.33541168410873246
3177	2529494400.0	0.3714501288704766	0.011027511044337385	0.9283874168483075	-0.37421092077448165	-0.913336189008148	0.16057145643353637	0.8497005287365782	-0.4070569982794049	-0.33513223004739434
3178	2529511067.0	0.3710653692222762	0.011099485865374237	0.9285404100939604	-0.37376181474291065	-0.9135705365082837	0.160284062414367	0.8500662313043743	-0.40652881353907855	-0.33484582446028366
3179	2529527734.0	0.3707479030611015	0.011124393720146758	0.9286669156592988	-0.3734672863265501	-0.9137331777952271	0.16004332488460304	0.8503341569169609	-0.40616243999241863	-0.3346100624902458
3180	2529544401.0	0.37048046990093597	0.011127312858143334	0.9287736023006569	-0.37333285593125015	-0.9138188572465229	0.15986767910642635	0.8505097295764452	-0.40596955433778037	-0.33439784814885704
3181	2529561068.0	0.37027838890078446	0.011086815934302774	0.9288546695934076	-0.3732689215457746	-0.9138729254916542	0.15970782154102475	0.850625785478605	-0.40584893564695285	-0.33424903068392275
3182	2529577735.0	0.3701947197901101	0.011041172055037185	0.9288885627238462	-0.37305546660026667	-0.9139894293219104	0.15953978164541194	0.8507558335263878	-0.4055877409481943	-0.3342350910861416
3183	2529594402.0	0.3701821459482045	0.011005961639533601	0.9288939915994565	-0.3727700016007226	-0.9141325301417418	0.15938708618722808	0.8508864229306867	-0.4052660683366504	-0.3342928493509453
3184	2529611069.0	0.3702209730375937	0.010944456849060646	0.9288792440287256	-0.37251285668922024	-0.91426233239777	0.15924370995372514	0.8509821400736528	-0.4049748219616483	-0.33440213942616687
3185	2529627736.0	0.3703324156242891	0.01087820259055311	0.9288355972109799	-0.37235590366187893	-0.9143392761023437	0.15916899567688314	0.8510023401530835	-0.4048028568143276	-0.33455890986332243
3186	2529644403.0	0.3704855381553464	0.010804162005870949	0.9287753959387028	-0.37236363831610597	-0.914335802301258	0.15917085628376482	0.8509323045211855	-0.40481268595915526	-0.33472511469681926
3187	2529661070.0	0.37070275544979125	0.010705084910342944	0.9286898665641803	-0.3723908798950493	-0.9143221094941656	0.15918578033583985	0.8508257751578308	-0.40484624395837204	-0.33495524936903914
3188	2529677737.0	0.3709337462732457	0.010583276890362758	0.9285990254819124	-0.37256400880043283	-0.914241736008703	0.15924229176429322	0.8506492903789706	-0.4050309153509831	-0.3351801640725453
3189	2529694404.0	0.37114865351285453	0.010444128648414042	0.9285147264165337	-0.37274509949052664	-0.9141617921606844	0.1592774577878589	0.8504762006084547	-0.40521492806946413	-0.3353969204811911
3190	2529711071.0	0.3713870173880099	0.010298388690866939	0.9284210394567811	-0.372964884142943	-0.9140625444790034	0.15933254525303772	0.8502757661558276	-0.4054424841712348	-0.33563002475520387
3191	2529727738.0	0.37159849491377994	0.01013176562832599	0.9283382497253178	-0.3731989203718812	-0.913962186976426	0.15936024162422427	0.8500806575914288	-0.4056728584740683	-0.33584580909459427
3192	2529744405.0	0.37178125481561464	0.010018580265547194	0.9282663015628598	-0.37334181862876814	-0.913898430056983	0.15939117291226068	0.8499379889325405	-0.4058192794691314	-0.33602995012418757
3193	2529761072.0	0.37191545041133606	0.009966299530415973	0.9282131062525475	-0.3733197370928944	-0.9139069481821602	0.15939405246514868	0.8498889760681834	-0.4058013836078437	-0.33617549794673385
3194	2529777739.0	0.3720147196517227	0.00993051115382132	0.9281737085862076	-0.3733720809830209	-0.9138799574543368	0.15942619767675648	0.8498225329472376	-0.40586304132241907	-0.33626902055297603
3195	2529794406.0	0.3720822839747061	0.009930623335123873	0.928146624554732	-0.3734252138783686	-0.9138490156412895	0.15947910913765884	0.8497696061827944	-0.40593270295902795	-0.3363186838049837
3196	2529811073.0	0.3721600789611414	0.00998137449624753	0.9281148893271796	-0.37349096105017027	-0.9138024907945204	0.1595916972513009	0.8497066421074143	-0.40603618063036745	-0.3363528539757712
3197	2529827740.0	0.3722280560988275	0.010100232089335526	0.9280863427314453	-0.37351994906327635	-0.9137625992621262	0.159752182587564	0.8496641229948785	-0.4061230078454857	-0.33635543788361727
3198	2529844407.0	0.3722762838619411	0.010280903534981511	0.9280650146926389	-0.3734734939566604	-0.9137497170058497	0.15993437398987836	0.849663414409346	-0.4061474580669371	-0.33632770406259715
3199	2529861074.0	0.37232025765169185	0.010496468487984856	0.9280449611368293	-0.3734943558877839	-0.9136989406615947	0.16017556603255478	0.8496349756584575	-0.40625616300944967	-0.33626825326618653
3200	2529877741.0	0.3723214209008413	0.010735705577462562	0.9280417577696237	-0.3734514967943621	-0.913678019288915	0.16039469009395482	0.8496533052253898	-0.4062969624474682	-0.3361726330704682
3201	2529894408.0	0.3723459376401702	0.0110153799956135	0.9280286440225941	-0.37323817007111953	-0.9137296153556099	0.16059719307650125	0.8497362950497198	-0.40617342530702477	-0.33611215010697576
3202	2529911075.0	0.3723802128210639	0.011274622062034945	0.9280117779407207	-0.3730465722824987	-0.9137734567855227	0.16079280015757833	0.8498054083186442	-0.40606766994134713	-0.3360651951940094
3203	2529927742.0	0.3724345182289819	0.011524181108887532	0.9279869195636951	-0.37284518754649515	-0.9138219038291622	0.160984453303617	0.8498699875598414	-0.4059516243739088	-0.336042085032842
3204	2529944409.0	0.3725183841713731	0.01175727684882133	0.9279503326662746	-0.3726627303343391	-0.9138616292825875	0.16118130147362184	0.8499132560879993	-0.40585550256966474	-0.33604875860478944
3205	2529961076.0	0.37259609740378763	0.011908389023135263	0.9279172045340798	-0.37260300803017465	-0.9138574380140683	0.1613430549891415	0.8499053750896821	-0.40586053424450763	-0.336062613416652
3206	2529977743.0	0.37268318944810286	0.012010005298419502	0.9278809191246049	-0.37261281696353665	-0.9138278408463227	0.16148797456357475	0.8498628883162787	-0.4059241764996016	-0.33609319242708974
3207	2529994410.0	0.37273441479172015	0.012068249830956529	0.9278595871013521	-0.3726126172800319	-0.9138135371386228	0.1615693559618385	0.8498405106098428	-0.40595464856091557	-0.3361129718386144
3208	2530011077.0	0.3727266395282913	0.012093722708345273	0.9278623788348148	-0.3725493901014731	-0.9138399480219865	0.16156578020791962	0.8498716397909556	-0.4058944336526765	-0.336106983873893
3209	2530027744.0	0.37272579124723193	0.012063991389529682	0.9278631066331275	-0.3725242007644316	-0.9138572245959042	0.16152613689026585	0.8498830533573114	-0.4058564193968412	-0.3361240283740943
3210	2530044411.0	0.3726820756675701	0.012039840043791883	0.9278809798286801	-0.37251635984755543	-0.9138688059817364	0.1614786893043224	0.8499056607189048	-0.4058310580835764	-0.3360974861148573
3211	2530061078.0	0.37259980799006365	0.01201879211558704	0.9279142911507778	-0.37243961376312285	-0.913915941143749	0.16138892968017352	0.8499753626933807	-0.405725524412032	-0.33604862989579054
3212	2530077745.0	0.37249645210365406	0.011979279182949526	0.9279562974841256	-0.3724071524699157	-0.9139468812570153	0.1612885954735302	0.8500348851426269	-0.4056569919412608	-0.3359808014302735
3213	2530094412.0	0.3723921494493114	0.011853853591585667	0.9279997700342123	-0.37248528682699933	-0.9139400309401642	0.16114692346582196	0.8500463505750318	-0.4056761097231641	-0.33592870653451096
3214	2530111079.0	0.3722880847407012	0.011745599543252189	0.9280428992516834	-0.37257624109323106	-0.9139240339539974	0.16102734157307327	0.8500520728360933	-0.4057152955615824	-0.335866896872018
3215	2530127746.0	0.37223377612335473	0.011649751877972653	0.9280658916230733	-0.37265982806311493	-0.9139052594803465	0.1609404524727393	0.85003921583708	-0.40576034795842497	-0.33584501122354055
3216	2530144413.0	0.37218177412275116	0.011527812779549701	0.9280882698016182	-0.3727236682093604	-0.9139002262288011	0.1608211542537404	0.8500339958892235	-0.4057751668491634	-0.3358403189033941
3217	2530161080.0	0.37216356602714795	0.011426035097022696	0.928096829993465	-0.3727547327079857	-0.9139045338142593	0.1607246475110151	0.8500283462130866	-0.4057683437574986	-0.33586286165419016
3218	2530177747.0	0.37216927096102503	0.011337048564656144	0.9280956335864219	-0.37274628029774476	-0.9139235031454243	0.16063636239217735	0.8500295549429644	-0.40572811306124507	-0.3359084011977482
3219	2530194414.0	0.37216480413618097	0.011218543379020257	0.9280988648019839	-0.37283145307030374	-0.9139037205937695	0.16055122885344572	0.8499941565468341	-0.405775964997089	-0.33594017334477483
3220	2530211081.0	0.37215873818437134	0.011137138346169723	0.9281022776302592	-0.3729246477092423	-0.9138738069678809	0.16050505309481655	0.8499559286951024	-0.4058455729553923	-0.3359528094666799
3221	2530227748.0	0.372154227396761	0.01104077004277132	0.9281052377977308	-0.37297223721904865	-0.913868116915542	0.16042685295504264	0.8499370219578257	-0.40586101843131456	-0.335981982289763
3222	2530244415.0	0.37214546071296783	0.010939387359226282	0.9281099535480363	-0.3729668042704025	-0.9138889530090102	0.160320754989548	0.8499432445658102	-0.4058168446137989	-0.33601959711398316
3223	2530261082.0	0.37212535888267284	0.010810512108361703	0.9281195236091077	-0.37299135246139276	-0.9139011425668736	0.16019410914257717	0.8499412734215601	-0.40579284671235627	-0.33605356312888457
3224	2530277749.0	0.37210508410762516	0.010701996798090863	0.9281289100366346	-0.3730541073579527	-0.9138915745853795	0.16010253865950125	0.849922607867692	-0.40581727066056433	-0.3360712773638832
3225	2530294416.0	0.3720976870533108	0.0105976430731749	0.9281330730293311	-0.373170550907458	-0.9138545750254268	0.16004235577034337	0.8498747267833069	-0.4059033205904953	-0.3360884453661102
3226	2530311083.0	0.3720832870203857	0.01049961688566256	0.9281399601166624	-0.3732695942360726	-0.9138253520209147	0.15997823609069195	0.849837535967283	-0.40597165424337905	-0.3360999530079575
3227	2530327750.0	0.37205566588216216	0.010403742661838106	0.9281521123305206	-0.3733836101113461	-0.9137896753984434	0.1599159430307873	0.8497995417657034	-0.4060544191039347	-0.3360960391628661
3228	2530344417.0	0.3719891057778282	0.010305718939545433	0.9281798841494847	-0.3734714627495772	-0.9137700568399758	0.15982286987274003	0.8497900750740168	-0.4061010654748479	-0.33606361440341986
3229	2530361084.0	0.37194331846354756	0.010229496315194042	0.9281990763060808	-0.373543935993627	-0.9137523098906182	0.15975495000765638	0.8497782626854566	-0.40614292259584817	-0.3360429000776386
3230	2530377751.0	0.3718928523049905	0.010182249843239316	0.9282198167420197	-0.37359075438383416	-0.9137422139160589	0.1597032083168565	0.8497797683184607	-0.40616682323388903	-0.3360102038044595
3231	2530394418.0	0.3718494034979398	0.01012692767544926	0.9282378286054079	-0.3735689615196335	-0.9137657169213506	0.15961969041553983	0.849808361989554	-0.4061153283429062	-0.3360001309189695
3232	2530411085.0	0.371831174530226	0.010087553936892452	0.9282455595924191	-0.3735556767574431	-0.9137803325388033	0.15956710258559903	0.8498221778759141	-0.4060834213814258	-0.33600375127280074
3233	2530427752.0	0.3718543458676501	0.01008259978395129	0.9282363312437942	-0.3735372611267721	-0.9137880804965217	0.1595658437523274	0.8498201339161435	-0.40606610930251147	-0.3360298422263551
3234	2530444419.0	0.371922640590687	0.010056178414060979	0.9282092558748569	-0.37358604574618	-0.9137636991973486	0.15959125431210422	0.8497688014041137	-0.4061216262462296	-0.33609255995236503
3235	2530461086.0	0.37199180995298536	0.010045987189445937	0.9281816478843414	-0.3737015281351788	-0.9137045625544912	0.15965945082123445	0.8496877433488931	-0.40625490828849753	-0.33613641322262355
3236	2530477753.0	0.3720475529751591	0.010055327511423184	0.9281592044007506	-0.3737541885543584	-0.9136731886906471	0.15971571871903764	0.84964017375785	-0.40632523261114817	-0.33617165329668575
3237	2530494420.0	0.3721085091115534	0.010050983249829448	0.9281348151979264	-0.37371085791475406	-0.9136896412753368	0.15972299177878194	0.8496325394683255	-0.4062883423898082	-0.3362355286324551
3238	2530511087.0	0.3721637789938773	0.010049351781258847	0.9281126721114056	-0.37367186793124424	-0.9137040178104419	0.15973197223421223	0.8496254802686721	-0.4062560502513567	-0.3362923800986217
3239	2530527754.0	0.3721842903430971	0.01002109049896266	0.9281047525829275	-0.37368276596397215	-0.9137019825325061	0.15971811900245758	0.8496117021577096	-0.4062613258253603	-0.33632081513831397
3240	2530544421.0	0.3721828122088985	0.010028186081833756	0.9281052686954125	-0.37371621445091807	-0.9136848879763313	0.15973764910049942	0.8495976373276655	-0.4062995950866638	-0.33631011533949107
3241	2530561088.0	0.3722212817026169	0.010028459190758038	0.92808983802966	-0.37375124664274173	-0.9136649194846633	0.15976989871712463	0.8495653730470998	-0.40634449043803117	-0.33633737825284804
3242	2530577755.0	0.3722478124511466	0.009987407924392039	0.9280796397983786	-0.37381449167108205	-0.9136395489377658	0.15976701922952333	0.8495259218776241	-0.4064025421915422	-0.3363668856445671
3243	2530594422.0	0.37224941650734616	0.009996917899375624	0.9280788940291951	-0.3738234131617333	-0.9136335116257508	0.15978066906391233	0.8495212932481755	-0.4064158806775549	-0.3363624596340012
3244	2530611089.0	0.37225718610995734	0.0100026339098844	0.9280757160406482	-0.37383774453555446	-0.9136250311002966	0.15979562981368456	0.8495115821164927	-0.4064348039499661	-0.3363641211367325
3245	2530627756.0	0.3722526702183791	0.010016980914983736	0.9280773726412231	-0.37384990554042963	-0.9136171143746199	0.15981244147188556	0.8495082092850539	-0.406452246168159	-0.33635156301429553
3246	2530644423.0	0.37224130709219455	0.010026837105799713	0.9280818238883621	-0.37385117024843856	-0.9136157482431326	0.15981729276274909	0.8495126319238391	-0.40645507390091096	-0.3363369755201433
3247	2530661090.0	0.37221128521927044	0.010052406793090468	0.9280935881004055	-0.37387869749284813	-0.9136006474849507	0.15983922070671666	0.8495136718831962	-0.4064883836381371	-0.3362940904190622
3248	2530677757.0	0.37216213719967123	0.010087161519370502	0.9281129202890428	-0.3738334337188	-0.9136203686186889	0.1598323680581081	0.8495551232668689	-0.4064431955606258	-0.3362439907470202
3249	2530694424.0	0.3720930471688138	0.010137228510834956	0.9281400760912905	-0.3737848684811696	-0.913640670813435	0.15982989936207662	0.8496067539415761	-0.4063963105562056	-0.3361701985946441
3250	2530711091.0	0.37208573160254454	0.010191207239244049	0.9281424177532273	-0.3737974389106868	-0.9136259634611484	0.15988456321202427	0.8496044273670017	-0.4064280233752284	-0.3361377378600835
3251	2530727758.0	0.37208167646985657	0.010220939625730896	0.9281437164731273	-0.37381761587607887	-0.9136115227908006	0.15991990334101516	0.8495973258527278	-0.4064597370183699	-0.3361173397592753
3252	2530744425.0	0.3720902040239198	0.010246696732208821	0.928140013831704	-0.37375052967824446	-0.9136384740019141	0.1599227325575859	0.8496231056384174	-0.40639850397058747	-0.33612621786435964
3253	2530761092.0	0.37207576654172875	0.01024905477944521	0.9281457756346863	-0.3737420267506867	-0.9136433246737148	0.15991489211280488	0.8496331687220516	-0.40638753937010536	-0.3361140378681573
3254	2530777759.0	0.3720710734153607	0.010240103595819366	0.9281477558050164	-0.3738152071730138	-0.9136102471110881	0.1599328210837722	0.8496030291928922	-0.40646212203840587	-0.3361000388787511
3255	2530794426.0	0.3720784155045225	0.010210603581773975	0.9281451375136003	-0.37385714379875473	-0.9135946607441072	0.15992383152769082	0.8495813608750379	-0.4064978959777723	-0.3361115466915157
3256	2530811093.0	0.3720811732627762	0.01015898623309	0.9281445983800758	-0.373886679747215	-0.9135891939007306	0.1598860078162478	0.8495671552096395	-0.4065114755902098	-0.3361310295144899
3257	2530827760.0	0.372069071665464	0.010122819387796217	0.9281498448190584	-0.37394422367475993	-0.9135688850431899	0.15986747593311268	0.8495471284692104	-0.4065580165346458	-0.3361253571231033
3258	2530844427.0	0.37207016714516283	0.01010832783100249	0.9281495636097833	-0.3739411960086974	-0.9135727396050035	0.15985253009631295	0.8495479813690072	-0.40654971548270546	-0.336133241725325
3259	2530861094.0	0.37205986658297446	0.010099675305976857	0.9281537869539579	-0.3738732085926663	-0.9136076098415005	0.15981226215883862	0.8495824148220605	-0.40647156333305096	-0.3361407274144291
3260	2530877761.0	0.37203705934759057	0.010101272521895743	0.9281629117592646	-0.3738627394690881	-0.9136142222127888	0.15979895183382903	0.8495970094748843	-0.40645666099100897	-0.3361218591930222
3261	2530894428.0	0.3720122717252037	0.010112141867840596	0.9281727286839977	-0.3739202399718366	-0.9135868815396717	0.15982072461987532	0.8495825585693585	-0.40651784027944265	-0.3360843967060656
3262	2530911095.0	0.37203387435629975	0.010073428263166151	0.928164491011409	-0.37401214151423745	-0.9135477874456088	0.15982915270114811	0.8495326446531499	-0.40660664787514206	-0.3361031382959183
3263	2530927762.0	0.3720488609164436	0.010032596476924643	0.928158926099786	-0.374023477702256	-0.9135481571537363	0.15980050903712034	0.8495210905082269	-0.4066068267613616	-0.33613212463668096
3264	2530944429.0	0.37207253441529553	0.009979501706386062	0.9281500087159786	-0.3740537024699759	-0.9135408799117852	0.15977136288616942	0.8494974142410803	-0.40662448312379507	-0.3361706009186779
3265	2530961096.0	0.3721134611751935	0.00993274381258194	0.9281341027096093	-0.374177126182938	-0.9134864661970254	0.15979347394793286	0.8494251292807953	-0.4067478539282348	-0.33620400513836823
3266	2530977763.0	0.37215706592120806	0.009872358637588813	0.9281172635070682	-0.3742846916355235	-0.913441750916584	0.15979717547487104	0.8493586332593666	-0.4068497317405733	-0.3362487292026615
3267	2530994430.0	0.3721975909028718	0.009805520990992994	0.9281017213022471	-0.374332754180172	-0.9134268916622613	0.15976953006160718	0.849319693916246	-0.40688470768304275	-0.33630476086386224
3268	2531011097.0	0.3722394608287266	0.009741372125283088	0.9280856046028599	-0.3744668025023017	-0.9133702494395661	0.15977922662977004	0.849242249081875	-0.40701338197634485	-0.3363446287166438
3269	2531027764.0	0.3722841691719194	0.009733980273793075	0.9280677491498147	-0.3745029211785593	-0.9133505208175035	0.1598073469873065	0.8492067236030929	-0.4070578285089539	-0.3363805357580541
3270	2531044431.0	0.3723260809850396	0.009721897815912595	0.9280510622380532	-0.3744443848171995	-0.9133771988778221	0.15979203750178733	0.8492141615029691	-0.40699825217433133	-0.3364338428723375
3271	2531061098.0	0.37236036649064747	0.00968146648242868	0.9280377291218825	-0.37448765518058474	-0.9133605915319871	0.15978556240689096	0.8491800478015827	-0.4070364836757125	-0.3364736949192511
3272	2531077765.0	0.37236294841871126	0.009648065852118914	0.9280370410011863	-0.3745608341444694	-0.9133310487924786	0.15978290533292588	0.8491466399685768	-0.40710356193104563	-0.3364768546172707
3273	2531094432.0	0.37233843300879593	0.009617012231170646	0.9280471994356215	-0.37466434230387	-0.9132887877908871	0.15978179089452285	0.8491117252226372	-0.4071990952485013	-0.33644936456804175
3274	2531111099.0	0.37231136137780735	0.009556461637931168	0.9280586857682905	-0.3747591844812331	-0.9132559593493443	0.15974700735810327	0.8490817415514039	-0.4072741420147755	-0.3364341977417927
3275	2531127766.0	0.3722524316717597	0.009498804915379272	0.9280829164571675	-0.37477364869854524	-0.9132638075891376	0.15966818715376704	0.84910119500307	-0.40725789182405125	-0.33640477135645425
3276	2531144433.0	0.37216397162775927	0.009440103756972129	0.9281189916510221	-0.3748028072294204	-0.913267215612382	0.1595802261577322	0.8491271011545904	-0.40725161427385975	-0.3363469767310791
3277	2531161100.0	0.37209556914054714	0.009418336272230238	0.9281466383970993	-0.37479857345872014	-0.9132786274778142	0.15952485049530224	0.8491589466991918	-0.40722652606884946	-0.33629695167606855
3278	2531177767.0	0.37204374129914547	0.009433194589411942	0.9281672636976447	-0.37476655840465356	-0.9132956974068445	0.1595023379128892	0.849195784999941	-0.4071878975829026	-0.3362507023046191
3279	2531194434.0	0.3720159167242044	0.009472202169024696	0.9281780190728066	-0.37471742422016463	-0.9133148446307171	0.15950813948816148	0.8492296566239638	-0.4071440432613974	-0.3362182599846508
3280	2531211101.0	0.3720242091920424	0.009510977645213914	0.9281742988680886	-0.37469182027883413	-0.9133197720782593	0.1595400694090685	0.8492373211247664	-0.40713208573526705	-0.33621338042035437
3281	2531227768.0	0.3720552844863786	0.009511869695204817	0.9281618337448818	-0.37473183256033993	-0.913297873781712	0.15957144923755617	0.8492060521167579	-0.40718118581376767	-0.33623289988870014
3282	2531244435.0	0.3720981732517248	0.009503532160624384	0.9281447259663773	-0.3748484684823286	-0.9132398341928116	0.1596296680443165	0.8491357813325159	-0.4073115369345165	-0.3362524895682707
3283	2531261102.0	0.3721125557073084	0.009492128332531713	0.9281390765314722	-0.37492664307131857	-0.9132031055818515	0.1596561939635723	0.849094964182598	-0.4073941426375451	-0.3362554896865955
3284	2531277769.0	0.3721139002785782	0.009515706371482913	0.9281382960268993	-0.37492728841036826	-0.9131986288196927	0.15968028283755592	0.849094089971608	-0.4074036274434544	-0.33624620551197604
3285	2531294436.0	0.3721152640705231	0.009543279952275857	0.9281374661403761	-0.37491795770249375	-0.9131982489705227	0.159704361460051	0.8490976123143418	-0.4074038339104384	-0.33623706053491487
3286	2531311103.0	0.3720594420279734	0.00954818942153407	0.9281597942577582	-0.37495951520708504	-0.9131820725381707	0.15969929351928724	0.8491037236719088	-0.4074399765286442	-0.33617782790189626
3287	2531327770.0	0.37196651303207223	0.0095736628122578	0.9281967777164057	-0.37494828917348816	-0.9131907478413633	0.1596760423570372	0.8491493941755102	-0.4074199345114194	-0.3360867497151223
3288	2531344437.0	0.37184358800744927	0.009610336570835765	0.9282456504011971	-0.37486686361765525	-0.9132336435798991	0.15962188695552923	0.849239177510793	-0.4073229108026907	-0.33597747798924665
3289	2531361104.0	0.3717229402035204	0.009660582922548316	0.9282934497582361	-0.37477067652232593	-0.91328107767987	0.15957635530019298	0.8493344428112217	-0.4072153561562872	-0.3358670242299175
3290	2531377771.0	0.3716033215922164	0.009704801240077499	0.9283408793188646	-0.3746896691586083	-0.9133221659918773	0.15953141676083274	0.8494225233695212	-0.40712214130503444	-0.3357572618004846
3291	2531394438.0	0.3715383136882283	0.009720086873381467	0.9283667386183554	-0.37466283715810356	-0.9133377524617295	0.15950519860116444	0.849462794897074	-0.4070868087267512	-0.33569821305202313
3292	2531411105.0	0.371534964708721	0.009716534352001649	0.9283681160827724	-0.37467022556263874	-0.9133350978082186	0.15950304444897961	0.849461000915128	-0.4070928494481795	-0.3356954272140611
3293	2531427772.0	0.37158323681351546	0.009659444935299993	0.9283493917931613	-0.3747404408192419	-0.9133072778637494	0.15949739250441747	0.8494089122053001	-0.40715661768495165	-0.3357498898608294
3294	2531444439.0	0.37167880464894454	0.00957400224337418	0.9283120190193467	-0.3748342109993974	-0.9132691310534007	0.15949548121945648	0.8493257210512297	-0.4072441930169301	-0.3358541153757064
3295	2531461106.0	0.3718097766753291	0.00948065469395959	0.9282605276296176	-0.37491153915518105	-0.9132372945957868	0.15949602367351212	0.8492342596580376	-0.4073177640932718	-0.33599614771173
3296	2531477773.0	0.37197405275817097	0.009358523480214154	0.9281959502782438	-0.37496332662987814	-0.913219898138481	0.15947388916872215	0.8491394513019148	-0.4073595901439082	-0.3361850034734899
3297	2531494440.0	0.3721673408046856	0.00920159733046605	0.9281200359031894	-0.3750802930815009	-0.9131748005634077	0.15945707057975267	0.8490030884397683	-0.4074642490115529	-0.3364024993920034
3298	2531511107.0	0.3723541167970179	0.00905176959676482	0.9280465921339727	-0.3752612671310208	-0.9130982550060827	0.15946961496180959	0.8488412060541912	-0.40763910775588513	-0.3365991157630281
3299	2531527774.0	0.37253257977411464	0.008920957744123104	0.9279762354283487	-0.3753690667509591	-0.9130542245905922	0.15946801147498624	0.8487152294694356	-0.4077406031660322	-0.33679379417745087
3300	2531544441.0	0.3726474818228743	0.008773468129157802	0.9279315063882987	-0.37551191284764124	-0.9130014394274877	0.1594339202078439	0.8486015894402839	-0.40786198383806543	-0.33693314550382497
3301	2531561108.0	0.3726972620561475	0.008627178842199212	0.9279128852651396	-0.3757572626191762	-0.9129044978276557	0.15941097024665296	0.8484711135005097	-0.408082037868932	-0.3369952817532387
3302	2531577775.0	0.37270219148698436	0.008493283795601603	0.9279121405559725	-0.375898356274031	-0.9128592159187829	0.15933762161720158	0.8484064487091556	-0.4081861291647625	-0.33703201887388506
3303	2531594442.0	0.3726670270171546	0.00837418033180784	0.9279273463358897	-0.3759511164125755	-0.9128571803111772	0.15922476698825958	0.8483985178218629	-0.40819314234574994	-0.33704348903304554
3304	2531611109.0	0.372584505787493	0.008259024152861005	0.927961515671384	-0.37601979930490637	-0.9128506959798308	0.1590997089244238	0.8484043237618415	-0.4082099893059708	-0.33700846881500124
3305	2531627776.0	0.37247474226577604	0.008158128397622672	0.9280064715911696	-0.3760803849281934	-0.9128478875105281	0.15897257102981174	0.8484256658342593	-0.40821829847351837	-0.3369446695602706
3306	2531644443.0	0.3723843435982222	0.008093458647851354	0.9280433161065474	-0.3761735205814996	-0.9128215975165401	0.1589031576799903	0.8484240585086218	-0.4082783695402775	-0.33687592658023424
3307	2531661110.0	0.3722816414600854	0.008032818099557915	0.9280850463536001	-0.3762505733055884	-0.9128033572959562	0.15882549227516182	0.8484349624567582	-0.40832034573678894	-0.3367975797691971
3308	2531677777.0	0.3721819485112902	0.008007386813124934	0.9281252496073815	-0.37625557893102624	-0.9128135077284473	0.15875528158699515	0.8484764796537484	-0.408298153149035	-0.33671988597270225
3309	2531694444.0	0.3720785305695299	0.007994208814976117	0.9281668275232865	-0.37628725170268956	-0.9128090310445496	0.1587059452243288	0.8485077909455261	-0.4083084195420582	-0.3366285240971276
3310	2531711111.0	0.3719579258995218	0.007938141020877865	0.9282156469687732	-0.3764390807297485	-0.9127554665990756	0.15865395265433918	0.8484933234032355	-0.40842924002896264	-0.3365184037010401
3311	2531727778.0	0.3718504832148717	0.007891147773972568	0.9282590952528696	-0.3764958944259452	-0.9127449863412247	0.15857941666359246	0.8485152088285008	-0.408453571040537	-0.33643367948372666
3312	2531744445.0	0.37171699154412174	0.007836474030664814	0.928313022569518	-0.3764736880880378	-0.9127759825721395	0.15845367719575554	0.8485835494368121	-0.4083853514932099	-0.3363441159155148
3313	2531761112.0	0.3715609458911977	0.007723949063821067	0.9283764344808082	-0.3765028233665508	-0.9127939679074264	0.15828075103698674	0.8486389618002786	-0.4083472943006678	-0.33625050148939484
3314	2531777779.0	0.37143891578222155	0.007590283076632204	0.92842636727171	-0.3765869164153651	-0.9127862866076111	0.1581249169671082	0.8486550690517876	-0.4083669704859891	-0.33618594733986257
3315	2531794446.0	0.371336206445683	0.007411172714437031	0.928468898941438	-0.3767361320829457	-0.9127533796889639	0.15795934492633149	0.8486337894319969	-0.4084438056640978	-0.33614632089154023
3316	2531811113.0	0.3712073060142865	0.007131528482808069	0.9285226315298485	-0.3769950079162767	-0.9126868440696778	0.15772599236758064	0.8485752176252983	-0.408597437539237	-0.33610747398495483
3317	2531827780.0	0.37107816209882694	0.006745960304987919	0.9285771317628495	-0.37736987742035666	-0.9125822658037475	0.15743437920684142	0.8484650689504558	-0.4088374984759375	-0.33609362774506185
3318	2531844447.0	0.37095831666610746	0.006310970793300952	0.9286280735277681	-0.37776920146255866	-0.9124732317278013	0.15710834416593894	0.84833976549646	-0.4090877326782954	-0.3361054436475892
3319	2531861114.0	0.3708040849855873	0.0058165482133096524	0.9286928977465498	-0.37810913707041766	-0.9124053681760376	0.15668415550850515	0.8482557462356889	-0.4092463950854443	-0.3361243476567906
3320	2531877781.0	0.37066175125674045	0.005279367802738827	0.9287529243188901	-0.37841972813079056	-0.9123575546308484	0.15621204137145478	0.8481794477094485	-0.4093602579435648	-0.33617823204317265
3321	2531894448.0	0.3705437886272496	0.004715126236568945	0.9288030298692707	-0.3788302927842432	-0.9122636640085452	0.15576461921344278	0.8480477050135615	-0.409576335881698	-0.33624740163598843
3322	2531911115.0	0.37042458539054246	0.004136375016974281	0.9288533344613474	-0.37940874291564214	-0.9120907076434359	0.15536906651476293	0.8478411598509576	-0.40996759802722904	-0.33629144537196826
3323	2531927782.0	0.37024705005600866	0.003574950165010554	0.9289264457728292	-0.3800825625195905	-0.9118727959316872	0.1550008055084516	0.8476168754769839	-0.4104573348973617	-0.33625943650043505
3324	2531944449.0	0.3700116561002045	0.0030171928751987487	0.9290222122732794	-0.3805745648356585	-0.911746367135534	0.15453660606893505	0.847498893775168	-0.4107425696982355	-0.33620851638165994
3325	2531961116.0	0.369694353047812	0.0025299752350903815	0.9291499795780387	-0.38083869365391326	-0.9117247889861531	0.15401233250663957	0.8475187164544159	-0.41079375405848706	-0.3360959935583802
3326	2531977783.0	0.3693455421774048	0.002093451645919675	0.9292897760838033	-0.3812050049382971	-0.9116474313750946	0.15356335851102387	0.8475061148355638	-0.4109678555889726	-0.33591488057085184
3327	2531994450.0	0.36891759150520936	0.0017401720410200883	0.9294604792454939	-0.38168471208721105	-0.911507289495942	0.153203269399397	0.8474766021766609	-0.4112802365748068	-0.33560687681582546
3328	2532011117.0	0.3683932269954345	0.001487217792096207	0.929668875722496	-0.38210891297139243	-0.9113849144309691	0.15287353065680315	0.8475135449842155	-0.41155233680650455	-0.3351797504882929
3329	2532027784.0	0.36770506280962967	0.0011622247806223895	0.9299417379694954	-0.38271784887891186	-0.9111973296508471	0.1524679460957744	0.8475376303938751	-0.41196853723400395	-0.334607067163278
3330	2532044451.0	0.36672359287146883	0.0006182286195937636	0.9303297395143375	-0.38398333997311923	-0.9107486083643557	0.1519663350399605	0.8473904655201929	-0.412960761036401	-0.33375561237184825
3331	2532061118.0	0.3654451193838349	-5.1536157912784875e-05	0.9308328862167253	-0.385508375470475	-0.9102150997400719	0.15130024668613887	0.8472503509356901	-0.4141358105129229	-0.3326535334099946
3332	2532077785.0	0.3638407016655222	-0.000773418456660041	0.931460866400426	-0.3871212392402159	-0.9096698075423058	0.15045925486677314	0.8472054591069753	-0.4153314857674963	-0.3312743077715265
3333	2532094452.0	0.3618503659176572	-0.0015969931765341394	0.9322348214361291	-0.3890493331995396	-0.9090127632239413	0.1494537140153037	0.8471746744457431	-0.41676521676930844	-0.32954791012685863
3334	2532111119.0	0.35957885317445976	-0.0024682299156015552	0.9331114382488431	-0.3914190242958138	-0.9081623298063757	0.14843291461117814	0.8470502911687439	-0.41861090592785555	-0.3275220811933246
3335	2532127786.0	0.3570639674583994	-0.0033105082867381785	0.9340740675544689	-0.39510716810945934	-0.9066635986442014	0.14782234134957306	0.8464015884031588	-0.42184139131719833	-0.3250449072361845
3336	2532144453.0	0.35444230435920443	-0.004101100720123013	0.9350688925707136	-0.4004128000482303	-0.9043346624496496	0.14781206936381894	0.8450090191459929	-0.42680440398965186	-0.32217659489318135
3337	2532161120.0	0.35214100033622786	-0.004953320120423765	0.9359338547685866	-0.40785358488477186	-0.9008596436870919	0.14868542521917316	0.8424085524131633	-0.43408221225448845	-0.319249845458707
3338	2532177787.0	0.3498782047835374	-0.005354355996348481	0.9367798955407367	-0.41517631659154886	-0.8973003591967585	0.1499356246088375	0.8397701280463143	-0.4413880336588574	-0.31616884062766903
3339	2532194454.0	0.3471212484132692	-0.004595583944993986	0.937808999481354	-0.4192218223243111	-0.8952749753895362	0.15078389213821689	0.8389039888968806	-0.4454902906343418	-0.31269553620643936
3340	2532211121.0	0.3431760866524569	-0.0026786006476162694	0.9392672668886509	-0.4205755891657599	-0.8945843244113075	0.1511127404140314	0.839849002706903	-0.44689116305442306	-0.30812650167761557
3341	2532227788.0	0.33727304817716663	0.0002622170420966963	0.9414068314047364	-0.42040298635333423	-0.894707284476259	0.15086485399295987	0.8423231090493013	-0.4466528924649896	-0.30165041623405303
3342	2532244455.0	0.3286306287441588	0.004254147974549705	0.9444489462518499	-0.4199064399857095	-0.8950619183274288	0.15014241245747656	0.8459790136343494	-0.44592159017593425	-0.29235841685373026
3343	2532261122.0	0.3168291246953252	0.009479482004554507	0.9484352614521033	-0.4197760538930219	-0.895284580537036	0.1491763534566611	0.8505335797737776	-0.4453938249162747	-0.2796729704559485
3344	2532277789.0	0.3019286523568446	0.0161108428917683	0.9531943818693522	-0.41935500360380507	-0.8956817818294254	0.1479713710530468	0.8561427858940543	-0.44440363009338996	-0.2636758307493978
3345	2532294456.0	0.2838166349513434	0.024150659693834134	0.958574391146169	-0.4181030179885273	-0.8965281341544329	0.14638022755296032	0.862924089404034	-0.4423279895122215	-0.24435213447051168
3346	2532311123.0	0.2626691966743293	0.03336780816336232	0.9643088107535033	-0.41657521088175514	-0.8975391474448753	0.1445287946491907	0.870327516971217	-0.439670408581587	-0.22185568512079307
3347	2532327790.0	0.2387040370707486	0.04354070017786629	0.9701157611925229	-0.4153232912339548	-0.8984405612950699	0.1425170922324599	0.877796642990119	-0.4369310760838842	-0.1963779221487404
3348	2532344457.0	0.21205553014336836	0.05431681474699227	0.9757469629834141	-0.4141727406246277	-0.8993552920388153	0.14007497851244652	0.8851516215084849	-0.4338314676432756	-0.16821671921477283
3349	2532361124.0	0.18333601615660433	0.06527006276253743	0.9808810957943881	-0.41441749281159823	-0.8996666817324804	0.13732444586531722	0.8914292158279165	-0.43167080129126395	-0.13789224953195817
3350	2532377791.0	0.15296756364412883	0.07694229275852241	0.9852313474802971	-0.41400913805632206	-0.900268267076308	0.13458633252036883	0.8973278988634206	-0.4284821243418259	-0.10585703113575162
3351	2532394458.0	0.12133532991431421	0.08966393250134491	0.9885535478278246	-0.41143715226489647	-0.9017859018951588	0.1322938278200756	0.9033256375475774	-0.4227795718238166	-0.07252741686930114
3352	2532411125.0	0.08890084735040435	0.10306368718361694	0.9906939566407468	-0.4073348783998196	-0.9038946268548849	0.1305863713481352	0.9089416571922448	-0.4151534414249585	-0.03837556375650114
3353	2532427792.0	0.05560605175380809	0.1167961103056699	0.9915980211889385	-0.40205727293266974	-0.9064372292985223	0.12931163375181146	0.9139244587438817	-0.405869705643429	-0.0034446698853111135
3354	2532444459.0	0.021849352299422288	0.13092898347609483	0.9911509507083229	-0.3979459787343924	-0.9083279545519904	0.12876072766384836	0.9171486268938216	-0.39723787365420443	0.032256284991673545
3355	2532461126.0	-0.012474199315631776	0.14506510598425626	0.9893434739145001	-0.39464053548429273	-0.9098159235713154	0.12842831840659494	0.9187509140698067	-0.38883299788193315	0.06859779627687673
3356	2532477793.0	-0.047184337731971594	0.1590677377794641	0.9861394896618424	-0.39216416763158635	-0.9109223324881319	0.12817086174402728	0.9186843331082883	-0.3806809149039458	0.10536193396703819
3357	2532494460.0	-0.08191025734176674	0.17283830428672253	0.9815383998160725	-0.390429313577184	-0.9116971077790839	0.12795833215114627	0.9169818214347845	-0.3727402637743131	0.14215848521843877
3358	2532511127.0	-0.11622060907721722	0.18649982775686025	0.9755565510376024	-0.38878353978146535	-0.9123795216441565	0.1281052991853737	0.9139694356053241	-0.36439185327205353	0.17854536691900968
3359	2532527794.0	-0.1499170336712676	0.20025543222971456	0.9682058897144237	-0.3857810048707499	-0.9134981530622979	0.12920580727152034	0.9103284568199121	-0.35414528969656095	0.2142036752476869
3360	2532544461.0	-0.1831302482939475	0.214073029121185	0.9594978115465806	-0.3816724282646802	-0.9149267906159049	0.13128261619812046	0.9059743206417828	-0.3421720415465889	0.24925654318693347
3361	2532561128.0	-0.21571767355816235	0.2276184057612075	0.949555552178692	-0.3770937554404825	-0.9164286837211366	0.13401032520272066	0.9007031613813998	-0.3291630735849202	0.2835233430701618
3362	2532577795.0	-0.24763377148298965	0.24050993085395134	0.9385267648723385	-0.37256702575826667	-0.9178507223402206	0.13690822771906133	0.8943552574557548	-0.3157610246058921	0.31689690563507816
3363	2532594462.0	-0.2787069715957428	0.25209291979842047	0.9266992952254991	-0.3700867671583538	-0.918602076253765	0.13858575062592263	0.886204383174789	-0.30433433143465627	0.3493170564859561
3364	2532611129.0	-0.30915359501850337	0.26257251920692515	0.9140458012837565	-0.3684856571103676	-0.9191224448534042	0.13939961216101604	0.8767225189255012	-0.2937168764712541	0.38090421536771435
3365	2532627796.0	-0.3389144782850493	0.27202035935509156	0.9006341657438383	-0.36730425749400836	-0.9195765487428802	0.13952259110591445	0.8661550431854264	-0.28352053734863697	0.4115720423765347
3366	2532644463.0	-0.36788250758032803	0.28051329319270574	0.8865521715943134	-0.3660402482179443	-0.9201226653409456	0.13924373382820474	0.8547964654237612	-0.27328844298297233	0.44117618887581306
3367	2532661130.0	-0.39596296004180126	0.287674077568068	0.8720418334978526	-0.3657916574576042	-0.9204749330869351	0.13755857259008314	0.8422646838193762	-0.2645175280656533	0.46970275679059276
3368	2532677797.0	-0.4229818592946964	0.2936080034140282	0.8572518224179114	-0.36684647237963125	-0.9205398339048472	0.13427613301349267	0.8285589975434595	-0.25768343859407167	0.49708071081476624
3369	2532694464.0	-0.4487824108308173	0.2986270505134826	0.8422685037626052	-0.36896539947493756	-0.9203469005066787	0.1297155222710438	0.8139157706539293	-0.25255389014894986	0.5232185497967871
3370	2532711131.0	-0.47317901403928986	0.3030244957198933	0.8272108411200315	-0.371240001050815	-0.9201247288548422	0.12470503185354662	0.7989258302825091	-0.2480859495084466	0.547878526102179
3371	2532727798.0	-0.4962859685615545	0.3070004521896792	0.8120658592529627	-0.3729740277259948	-0.9200635253763406	0.11988946540004705	0.7839582973926412	-0.24338001484795885	0.5711178129964418
3372	2532744465.0	-0.5181561457033386	0.310653289499206	0.796874357971935	-0.37358400786025714	-0.9203317182127655	0.11586422020022769	0.769382348212466	-0.23766375864835165	0.5929306368237437
3373	2532761132.0	-0.5388785627780659	0.3140892261265977	0.7816379293569635	-0.37392994945155994	-0.9206508117184441	0.11215380415003362	0.7548418956850502	-0.23184055062340841	0.6135663546880931
3374	2532777799.0	-0.5585164731707302	0.31733229363976667	0.7663938704153721	-0.37506807711919304	-0.9206975248923347	0.10788885569529352	0.7398535576200471	-0.22719217211526843	0.6332459476431777
3375	2532794466.0	-0.5772757558365216	0.32070723868978157	0.7509324661881045	-0.37618303962789407	-0.9206881716984269	0.10401736004593948	0.7247337596798507	-0.2224413575452725	0.652135584087945
3376	2532811133.0	-0.5952907338709245	0.3245419721523136	0.7350520052886759	-0.37595051157305126	-0.9209899905685803	0.10216971234396222	0.7101338993565776	-0.21552249438045623	0.670268527830935
3377	2532827800.0	-0.6130189336592975	0.3284001605636323	0.7185827172406797	-0.3753751742102875	-0.9213704906377669	0.10084591002374521	0.6951987237918482	-0.20791766044206417	0.6880908231581674
3378	2532844467.0	-0.6307844330745225	0.33194358414660763	0.7013732643427163	-0.3750830030528166	-0.921701777036304	0.0988866777124223	0.6792817823346466	-0.20069701331116968	0.7059015292774496
3379	2532861134.0	-0.6483514028112568	0.3351908336023166	0.6835843499829849	-0.374795037027777	-0.9220564769228592	0.09664643596094127	0.6626983768593546	-0.19354316943149716	0.7234444711754926
3380	2532877801.0	-0.665457139554096	0.3378517766943226	0.6655997088347997	-0.37468058111363534	-0.9224162939077554	0.09360898925760441	0.6455859799847183	-0.18709451546737363	0.740415008444048
3381	2532894468.0	-0.6818576424733609	0.3398956322436162	0.6477199352979517	-0.37472396469526087	-0.9227809512876433	0.08976227617288429	0.6282134236736231	-0.18151108815272066	0.756572282861248
3382	2532911135.0	-0.697328109622184	0.34138533875686605	0.6302297660477577	-0.3750904190707214	-0.9230834793799807	0.08499451521774576	0.6107705666222811	-0.17712408243265151	0.7717424274784233
3383	2532927802.0	-0.7119398369936891	0.3425564751562975	0.6130226177147892	-0.37522993308820957	-0.9234516355252255	0.08024695732801448	0.5935858537869795	-0.17289343010733324	0.785979450119215
3384	2532944469.0	-0.7259619051940294	0.3434257117252121	0.5958507302446535	-0.3755619707901327	-0.9237694063335342	0.07485512686797902	0.5761358505624231	-0.169436904032803	0.7995990352973745
3385	2532961136.0	-0.7394296458417708	0.3443977967574273	0.5784755452384687	-0.375631785865306	-0.9241192498646176	0.07003123215607229	0.5586989889895584	-0.16551063294630516	0.8126879290870261
3386	2532977803.0	-0.7522415000041616	0.3455703321327772	0.5609936463286649	-0.37583216366273375	-0.9243732604221149	0.06545426016064265	0.5411865763561372	-0.161602045055844	0.8252283736067805
3387	2532994470.0	-0.7643839562430803	0.3472248636971951	0.5432789904539296	-0.37575330608718893	-0.9246249065871659	0.06227547738253078	0.5239528799450615	-0.156536501012189	0.837239334627881
3388	2533011137.0	-0.7760069395716549	0.3493315513946724	0.5251482618621389	-0.37490841503690425	-0.9250305394157456	0.061336624318031746	0.5072049980739057	-0.14928485639342742	0.8487974561580892
3389	2533027804.0	-0.7871504042397557	0.35176643208430414	0.5066109141776045	-0.3735091892323591	-0.9255318904995066	0.062302529863524164	0.4908004957863992	-0.14018237024350874	0.85992079659044
3390	2533044471.0	-0.7978474723830137	0.35445593347701604	0.4876478258282029	-0.37214698173047106	-0.9259528494020733	0.06417121374168788	0.4742847612995136	-0.13027782584583636	0.8706788462412218
3391	2533061138.0	-0.8078819353101935	0.35732458453167154	0.4686639733206776	-0.37128865415658685	-0.9261611005206181	0.06610863163784397	0.4576805806389942	-0.12060164663762285	0.8808993863854414
3392	2533077805.0	-0.8170221201069254	0.36042760766775134	0.4500742104218882	-0.37070149436461347	-0.9262015706972111	0.0687826468948505	0.4416506054924266	-0.1106462383857707	0.8903382237100979
3393	2533094472.0	-0.8255402052677812	0.3634178004309441	0.43175325339407034	-0.3701011657939365	-0.9262010346759113	0.07194977722856823	0.42603813980018146	-0.10039494855422695	0.8991175438953436
3394	2533111139.0	-0.83360924070749	0.3658583519782234	0.4138155387305566	-0.36989234003593713	-0.9261477947243146	0.07368798484168104	0.4102137133127329	-0.09164021287113885	0.9073735618779686
3395	2533127806.0	-0.841256687702712	0.3677959980500469	0.3962490242433814	-0.37030205427959834	-0.9260110463869264	0.07334800996413733	0.39390807809915684	-0.08502732377159472	0.9152085992933356
3396	2533144473.0	-0.8484998066305002	0.369299253018492	0.3790331646017116	-0.37127204295156957	-0.9258124596934568	0.07091092721802254	0.3771009788777698	-0.08055650933559441	0.9226621811546698
3397	2533161140.0	-0.8553909629099257	0.3705764994051272	0.36191070536897907	-0.37268507856777	-0.9255466827129681	0.0668518536164513	0.3597389786844975	-0.07769424822766535	0.9298125999401022
3398	2533177807.0	-0.8619869003281235	0.3718245156449019	0.344565107386323	-0.3737006338620095	-0.9253599358213132	0.06369321335831779	0.3425294438640955	-0.07386148348232607	0.9365991999483793
3399	2533194474.0	-0.8679879325822509	0.3735393905292117	0.32720830156744946	-0.3744698730399709	-0.9251136352600502	0.06274612371583707	0.32614301016121416	-0.06806677294392777	0.9428667198199234
3400	2533211141.0	-0.8732319814709104	0.3757617746750234	0.3102724532237182	-0.3757500807214674	-0.9246262503025915	0.062274987669048654	0.31028661488081966	-0.062204388466140015	0.9486057298379319
3401	2533227808.0	-0.8780008020514425	0.3778621464858987	0.2938278234784668	-0.37750605293848555	-0.9240433633928411	0.060274725751768746	0.29428518751685273	-0.05800052433137838	0.9539560616639826
3402	2533244475.0	-0.8822563668056161	0.37998758624538764	0.2779085056819205	-0.379242860430462	-0.9234353431624229	0.05866872941371144	0.27892392519014036	-0.05363395657512396	0.9588142899741444
3403	2533261142.0	-0.8860977555523626	0.38223621162643684	0.2621569112698262	-0.38081288658550205	-0.922809909839713	0.058338801085028896	0.26422019797033564	-0.048138849415942	0.9632602650174179
3404	2533277809.0	-0.8893808082508791	0.3844544773198778	0.24737932974222615	-0.38264795250282235	-0.9221117659675887	0.05736231785356176	0.2501645905407303	-0.0436422494016388	0.9672192262908933
3405	2533294476.0	-0.8920772966872595	0.38665777702859927	0.23386718495430894	-0.3846737526826911	-0.9213540334876313	0.0559718587603477	0.23711642864248522	-0.040031343212218934	0.9706561135790877
3406	2533311143.0	-0.8944091650480142	0.38876898563493556	0.221112915241281	-0.3864833148124372	-0.9206337536150817	0.055354666254939476	0.22508419058144713	-0.035946731603699864	0.9736759931503429
3407	2533327810.0	-0.8965216993758567	0.3906604820310782	0.2088856872250272	-0.3881584844780932	-0.9199738837897227	0.05459893838275646	0.21349902453148628	-0.032131618759405026	0.9764147303272337
3408	2533344477.0	-0.8982705953614507	0.3923263795440182	0.19796451556495634	-0.38988929183395943	-0.9193453772597554	0.05282440178867738	0.20272216855143985	-0.029733637937545965	0.9787847736621165
3409	2533361144.0	-0.8997397955338435	0.3935322718703976	0.188681348652274	-0.3913201262472459	-0.9188706940354632	0.05045003901510554	0.1932274802572269	-0.028442901386982994	0.9807416286841981
3410	2533377811.0	-0.90133213521786	0.3933927982581247	0.18122496600153032	-0.392452817126537	-0.9187867279457141	0.042564479090589115	0.1832516530704656	-0.03275751561780481	0.982520115222834
3411	2533394478.0	-0.902796625106564	0.39249857033140884	0.17579284963842637	-0.39368553645290894	-0.9187695364306738	0.029567504371356426	0.17311831816414922	-0.04251365915520529	0.9839830469582551
3412	2533411145.0	-0.9038722954045063	0.39176543986989765	0.17185666621849371	-0.3949331710176611	-0.9185560023405474	0.016812524917083793	0.16444653851669827	-0.05267552266184349	0.984978489756085
3413	2533427812.0	-0.9047301107714996	0.3912623499182201	0.1684553359198302	-0.3957911637278674	-0.9183121367807647	0.00722316800904909	0.15752073316973536	-0.06013811584693027	0.9856828220295059
3414	2533444479.0	-0.9053153403584838	0.3910380671731524	0.16581123162526723	-0.39658610822159324	-0.9179974465740413	-0.0003832090700560606	0.15206443791121424	-0.06610535609938015	0.9861574360200914
3415	2533461146.0	-0.9055829304258214	0.3912214772016857	0.16390641200853912	-0.39757937195509535	-0.917544211341663	-0.006577478939357215	0.1478181285132984	-0.07112226099848529	0.9864539649032232
3416	2533477813.0	-0.9053704451277664	0.3917613640222334	0.16379069188629003	-0.39883121122148313	-0.916953817240509	-0.011373741849740382	0.1457327075325066	-0.07562228975308152	0.9864295449994116
3417	2533494480.0	-0.905230874414465	0.3918156624157314	0.16443099066947503	-0.3994976587906385	-0.9166085275671907	-0.015179848876246495	0.14477114570114474	-0.07943106367680464	0.986271778717991
3418	2533511147.0	-0.9050078928526385	0.3918703289925393	0.16552449706827815	-0.4001714934866359	-0.9162478995940455	-0.01877664214324736	0.14430346383612103	-0.0832311945413455	0.9860269157483067
3419	2533527814.0	-0.9047475918972285	0.39191033298461486	0.1668474928072184	-0.40090862524610504	-0.9158355381570746	-0.022749533002240592	0.14388908631110486	-0.08747318416766503	0.9857202305381206
3420	2533544481.0	-0.904394133589629	0.39195973682438645	0.16863812094903666	-0.40150567610006554	-0.9155050999209239	-0.02536935312947881	0.14444529479388923	-0.09065305691115191	0.9853515007775498
3421	2533561148.0	-0.9040811327265893	0.3918423429788331	0.17057808680093126	-0.4017999806344195	-0.9153312926325994	-0.02693325620334591	0.14558187047152385	-0.0928881207496069	0.9849759976840142
3422	2533577815.0	-0.9037207328814159	0.39166431770175364	0.17288117074886195	-0.402190447599349	-0.9150879779869163	-0.029271768030867562	0.1467367739188531	-0.09598465910257467	0.9845076253624705
3423	2533594482.0	-0.9033185424359889	0.39134905387717633	0.17567449706989258	-0.40265113360641963	-0.9147728664080255	-0.03259858109044611	0.14794483937192937	-0.10018243814703306	0.9839084325231338
