// Start Time: Unknown
// Update Rate: 60.0Hz
// Filter Profile: human (46.1)
// Option Flags: AHS Disabled ICC Disabled 
// Firmware Version: 4.0.2
PacketCounter	SampleTimeFine	Mat[1][1]	Mat[2][1]	Mat[3][1]	Mat[1][2]	Mat[2][2]	Mat[3][2]	Mat[1][3]	Mat[2][3]	Mat[3][3]
2821	2523577615.0	0.36106798638995785	-0.03968869508686407	0.9316945404404835	0.16363211281498308	-0.9808964363189427	-0.10519844520002902	0.9180710434710413	0.19043893693018987	-0.34767595608683277
2822	2523594282.0	0.36101193072739657	-0.03959263166095543	0.9317203493487933	0.16396816349651624	-0.9808388299708395	-0.105212313827873	0.9180331297028759	0.19075537512635132	-0.34760258863873245
2823	2523610949.0	0.3609842540957532	-0.03955871998030419	0.9317325131004353	0.16411759239559423	-0.9808122479578274	-0.10522713586422017	0.9180173114714159	0.19089903595731778	-0.34756549585561614
2824	2523627616.0	0.3610554212771546	-0.039591903483773325	0.931703527923399	0.16398909503867243	-0.9808335419109324	-0.10522898731268193	0.9180122872133977	0.19078271473324537	-0.3476426272542529
2825	2523644283.0	0.3610562238440357	-0.039666190302641915	0.9317000571913476	0.16368615641121087	-0.980888040892065	-0.10519264914551552	0.9180660354368908	0.19048686196638742	-0.34766292582814795
2826	2523660950.0	0.3611451079043783	-0.039705514750921045	0.9316639325073712	0.16347798687802378	-0.9809246904141657	-0.10517461453308058	0.918068166773603	0.19028984164751894	-0.3477651755462564
2827	2523677617.0	0.36124385427561717	-0.03974399629949665	0.9316240081203591	0.16330263684599688	-0.9809543666173929	-0.10517024015097926	0.9180605244466411	0.19012875998232304	-0.34787343687085814
2828	2523694284.0	0.3613733877022471	-0.039766788062563535	0.9315727975997306	0.16323179606968513	-0.9809634341312217	-0.10519563512496627	0.9180221432037824	0.19007720395846373	-0.348002875164655
2829	2523710951.0	0.3614678128769853	-0.03978808990780977	0.9315352533079021	0.16318255736038623	-0.9809690146542497	-0.1052199850864618	0.9179937217798679	0.1900439427862909	-0.34809600196352153
2830	2523727618.0	0.3615011627758379	-0.03977574288785013	0.9315228390058059	0.16327030183929403	-0.9809514596442406	-0.10524752899303458	0.9179649872675008	0.19013711920493975	-0.3481208957408669
2831	2523744285.0	0.36138892643410697	-0.0397335016607281	0.9315681900411698	0.16354873496736647	-0.9809011493999007	-0.10528412224323519	0.9179596152017682	0.1904053149251126	-0.3479884493871757
2832	2523760952.0	0.3613480154905403	-0.039637928656922713	0.9315881312644751	0.1638176941597573	-0.9808570847675437	-0.10527650422338264	0.9179277611997737	0.19065207544924445	-0.34793736698674244
2833	2523777619.0	0.36132007639342184	-0.03958179379263729	0.9316013546550956	0.16398243225353057	-0.9808298545449413	-0.10527373055784622	0.91790934427495	0.19080376839440802	-0.34790279915405253
2834	2523794286.0	0.36135847582010583	-0.03954224388122242	0.9315881401680726	0.16404103253025487	-0.9808212385606379	-0.10526270771163415	0.9178837571279811	0.19085625202548379	-0.3479415173034216
2835	2523810953.0	0.36136881987208197	-0.03951128902108278	0.9315854410971391	0.16417763039668526	-0.9807960800209605	-0.10528416354251613	0.9178552618477427	0.19099190416195738	-0.3479422521669385
2836	2523827620.0	0.3614337781038414	-0.0394579860655722	0.9315624999865724	0.16420978088042493	-0.9807938852620638	-0.1052544654432721	0.9178239329570712	0.19101419310667797	-0.3480126522456026
2837	2523844287.0	0.3614251496814692	-0.03951399207057166	0.9315634737409869	0.16390847549192242	-0.9808504167490187	-0.10519729856412835	0.9178811866683192	0.190712098184471	-0.3480273304877582
2838	2523860954.0	0.3613462272202473	-0.03961171598782412	0.9315899398502507	0.16374041387190685	-0.980876135103742	-0.10521922091045327	0.9179422535970063	0.1905594908170309	-0.3479498520200918
2839	2523877621.0	0.36132766066793925	-0.03956044670089075	0.9315993198221328	0.1638387801935623	-0.9808619356600928	-0.1051984661381607	0.9179320104130373	0.19064321186436767	-0.34793101331890164
2840	2523894288.0	0.3613222949620128	-0.0395008830558477	0.9316039283951052	0.16403179825857636	-0.9808286804519875	-0.10520774098359315	0.9178996504648217	0.190826570059364	-0.3479158689050224
2841	2523910955.0	0.361276919191184	-0.03950648915571632	0.9316212883861745	0.1641449524949064	-0.9808055816273388	-0.10524659433493533	0.9178972830497818	0.1909440974820819	-0.34785762807013665
2842	2523927622.0	0.36124327647161186	-0.0394934073142548	0.9316348887749779	0.16430610946153545	-0.9807743118541516	-0.10528652145754297	0.9178816904142217	0.19110735199286838	-0.347809117788199
2843	2523944289.0	0.36131726335571634	-0.0394337297549881	0.9316087248189269	0.16458166661236273	-0.9807218984031889	-0.10534435441704038	0.917803197976687	0.19138845040925662	-0.3478616834802455
2844	2523960956.0	0.3615132885790175	-0.03938887818934825	0.9315345717984753	0.16469614004968208	-0.9806984657946145	-0.10538358809997356	0.9177054667122342	0.1915177157943204	-0.3480483312751353
2845	2523977623.0	0.3617389994413068	-0.03944612865420877	0.9314445228876478	0.16452288273369303	-0.9807228046207768	-0.10542770771364368	0.917647599757226	0.19138125151370916	-0.3482758952739174
2846	2523994290.0	0.3619790387343046	-0.03957193877022862	0.9313459277727877	0.16431677125663008	-0.9807458599876656	-0.10553462370639743	0.9175898725469814	0.19123707741706336	-0.3485071104298949
2847	2524010957.0	0.3622270691927296	-0.039780283438740044	0.9312406130499138	0.16392796420639505	-0.9807973477378035	-0.10566070803111927	0.9175615362988974	0.1909295464825287	-0.348750247863401
2848	2524027624.0	0.3625221755858532	-0.04009925818889809	0.931112088688145	0.1634014589289587	-0.980863593779257	-0.10586110531412801	0.9175389013161174	0.19052207192643364	-0.34903252667977974
2849	2524044291.0	0.3630945534050594	-0.040458916831637534	0.9308734722487215	0.16266565550926076	-0.9809617061047544	-0.10608494555681591	0.9174433114941345	0.18994000948947204	-0.34960057635795777
2850	2524060958.0	0.36383575271511115	-0.04079918865214134	0.9305691652164045	0.16182782359274517	-0.9810785696023098	-0.10628544480935126	0.9172978254402788	0.18926242752435907	-0.35034901593999507
2851	2524077625.0	0.3646951138416876	-0.04109345580305533	0.9302197599654399	0.16103563203689364	-0.9811878756312239	-0.10647947186553891	0.9170959596217163	0.18863107009304772	-0.3512169133755876
2852	2524094292.0	0.3653597952152707	-0.041286212341017745	0.929950358197032	0.16056771943208095	-0.9812463026244627	-0.10664755535033332	0.9169134242209764	0.18828473718375116	-0.35187871522302927
2853	2524110959.0	0.3657052135947112	-0.041392226500335444	0.9298098624638222	0.16035849229906365	-0.9812689516627131	-0.10675391538642315	0.9168123312309985	0.18814337109796192	-0.35221757652717556
2854	2524127626.0	0.3657236283772728	-0.04141832522780298	0.9298014572917634	0.160390925924709	-0.9812588638115477	-0.10679790762128943	0.9167993120239443	0.18819023493952833	-0.35222642851698116
2855	2524144293.0	0.3657274855501013	-0.04135497910198625	0.9298027597381475	0.1605576099396721	-0.9812318190874557	-0.10679593204229759	0.9167685968681853	0.18834511651167707	-0.352223589332887
2856	2524160960.0	0.3657923470742865	-0.04119523730347299	0.9297843358787001	0.16105478456101974	-0.981146359103892	-0.10683247814770791	0.9166555051882297	0.18882471882856744	-0.35226113945115234
2857	2524177627.0	0.3658634482606336	-0.041029650679376514	0.9297636823365212	0.16163645911988622	-0.9810436950159539	-0.10689678925313939	0.9165247363328634	0.18939333735528563	-0.3522961416981498
2858	2524194294.0	0.3658432722299996	-0.040886225080945304	0.9297779394902187	0.16199442023726118	-0.9809866270655513	-0.10687864768299993	0.9164695892259821	0.1897196724569793	-0.35226401733185353
2859	2524210961.0	0.36582063129416065	-0.04074793620568383	0.9297929185654834	0.16235918310658523	-0.9809274826916995	-0.10686799970565769	0.916414077467443	0.19005493783404745	-0.3522277093364352
2860	2524227628.0	0.365812420685049	-0.04062121085080636	0.9298016939657399	0.16254829355102607	-0.9809030035128613	-0.10680519633003493	0.9163838306824245	0.19020834610621645	-0.35222359366649986
2861	2524244295.0	0.36570899008477986	-0.0404941011014298	0.9298479243119049	0.16276509177120527	-0.9808750456282785	-0.10673176548916502	0.916386632089252	0.19037954890089998	-0.35212379625411344
2862	2524260962.0	0.3655826538206213	-0.04040149853978195	0.9299016303573253	0.16293307883753358	-0.9808537734989233	-0.1066709277799956	0.9164071884517243	0.19050877651347967	-0.3520003849789701
2863	2524277629.0	0.3653121722219461	-0.04036547841806891	0.9300094864992313	0.162925016785353	-0.9808660243762447	-0.10657054532014448	0.9165164787018159	0.19045332860420405	-0.3517457517747775
2864	2524294296.0	0.36504235159952203	-0.04032003665958378	0.9301173991397327	0.16275785262146225	-0.9809123556671459	-0.10639939806963822	0.9166536766678794	0.19022419704995686	-0.35151215044142914
2865	2524310963.0	0.3647771944290465	-0.040258250392789616	0.9302240975699269	0.16259234274741827	-0.9809600244781477	-0.10621280739975703	0.9167885953175788	0.1899913251997134	-0.3512861623299115
2866	2524327630.0	0.3645462772917476	-0.04012450412933899	0.9303203942089536	0.16263854780831005	-0.9809711667226763	-0.10603901558179163	0.9168722454516399	0.1899620862886225	-0.3510835958761696
2867	2524344297.0	0.36425009205157755	-0.03995392631509036	0.9304437404875299	0.16285445457157455	-0.9809528379591713	-0.10587708121233286	0.9169516328938034	0.19009264444437685	-0.35080548664684746
2868	2524360964.0	0.36384816530592073	-0.03980870069444506	0.9306072103484562	0.16302692653332562	-0.9809430624230601	-0.10570207902007656	0.9170805492586861	0.1901735408333371	-0.35042444340870127
2869	2524377631.0	0.3634731256436423	-0.03963535122192667	0.9307611540391854	0.1632074216318491	-0.9809341236118649	-0.10550631572615338	0.9171971568093337	0.1902558384579497	-0.35007440848130794
2870	2524394298.0	0.3630055713263293	-0.039520499970459866	0.9309484869036151	0.16317324755152618	-0.9809651874912908	-0.10527009173390761	0.9173883836573984	0.19011951770468455	-0.3496471400114758
2871	2524410965.0	0.3625827528415416	-0.039351439914490804	0.9311204065632468	0.16289380834533415	-0.9810519876364066	-0.1048933017757091	0.9176052280499515	0.18970625116561823	-0.34930242444633025
2872	2524427632.0	0.3621363884422202	-0.03922266677862821	0.9312995321467732	0.16214503966783908	-0.9812312065588271	-0.10437578927233954	0.9179140603984345	0.18880387095046972	-0.34897976450931656
2873	2524444299.0	0.36165017882528566	-0.03906841378499261	0.9314949313871568	0.1612716875246128	-0.9814386900365861	-0.10377639665277416	0.9182595444418766	0.18775451191274972	-0.3486368487377698
2874	2524460966.0	0.3609407222936024	-0.038835838260919145	0.9317797876412347	0.1604433265261506	-0.9816494198967377	-0.10306481159746722	0.9186836963631146	0.18669813626003362	-0.34808629957761084
2875	2524477633.0	0.3601173675069629	-0.03859534802311648	0.9321082988209203	0.15950233436571867	-0.9818848558787148	-0.10227969069137177	0.9191705429090632	0.1855061425047989	-0.34743774138865186
2876	2524494300.0	0.359161683464903	-0.038463602669045166	0.9324824054106193	0.1582665933089668	-0.9821685593130327	-0.10147219589294254	0.9197578869316809	0.18402573832667926	-0.3466698098483477
2877	2524510967.0	0.35833353953053243	-0.038295679820597006	0.9328078662589627	0.15698099563660436	-0.9824607055722756	-0.10063761232942237	0.9203010602278261	0.1824949394188919	-0.3460369281305598
2878	2524527634.0	0.3576133619264754	-0.03808580994535887	0.9330927898405658	0.1557530781975316	-0.9827409753593295	-0.09980558091503527	0.9207896947748914	0.18102388359164107	-0.3455093219665175
2879	2524544301.0	0.35677060638567376	-0.03786906182115993	0.9334241632698308	0.15458970200126557	-0.9830093832708975	-0.09896755244285832	0.9213125194277774	0.17960647693820833	-0.3448546867703647
2880	2524560968.0	0.3558869506683501	-0.03770633989023943	0.9337680173769423	0.1531898275018313	-0.9833162076081319	-0.09809236772104563	0.9218879297907868	0.1779535551407822	-0.344173178964913
2881	2524577635.0	0.3550015973102347	-0.037538860518529546	0.9341117170114892	0.15146420400223978	-0.9836825755608531	-0.09709369415124203	0.9225142062934045	0.175952904178753	-0.34352309194275815
2882	2524594302.0	0.35403281335528963	-0.03729659970293628	0.9344890211866254	0.1499555698828073	-0.9840127923323259	-0.09608408602604823	0.9231327608360895	0.17414875301574073	-0.3427799843838631
2883	2524610969.0	0.35287090801345944	-0.036903787063545745	0.9349439730690419	0.14885929321305	-0.984281148071643	-0.09503437470136794	0.9237548555227562	0.17270996511822134	-0.3418307108014066
2884	2524627636.0	0.35156122497391273	-0.03651702809781897	0.9354524102025421	0.14763063206305305	-0.9845734052194415	-0.09391701768719735	0.9244511353075973	0.1711190123671154	-0.34074680047653794
2885	2524644303.0	0.3501118279905717	-0.036025856581208576	0.9360148746460661	0.14653950207591174	-0.9848500272633199	-0.09271784149117218	0.9251745144741312	0.16962476663809575	-0.33952843225645674
2886	2524660970.0	0.3484920904669226	-0.03540817381674176	0.9366426875329557	0.14563653383865247	-0.98510466452019	-0.09142647292785233	0.9259283249223222	0.16827079713226437	-0.3381444601631307
2887	2524677637.0	0.3467070388770058	-0.034631237369322235	0.9373339354741236	0.1449436341926352	-0.9853365937307177	-0.09001744254409072	0.9267068425884049	0.16707026801144703	-0.3366035553086349
2888	2524694304.0	0.3447113689287955	-0.03377261851451402	0.9381009979580603	0.1443276752484919	-0.9855630556102923	-0.08851545386806609	0.9275470846747359	0.1659062194577918	-0.33486046654781637
2889	2524710971.0	0.34266172043242665	-0.03273357748814465	0.9388884162961633	0.14397932384861575	-0.9857564241465708	-0.0869150536895763	0.9283603285655766	0.1649629811763662	-0.3330680338714913
2890	2524727638.0	0.34042389814077656	-0.03157295706651855	0.939741835802107	0.14367276415886934	-0.9859533323912881	-0.0851713753878875	0.9292307067750121	0.16400967876497502	-0.3311059027831149
2891	2524744305.0	0.33793870691730876	-0.030430103194549682	0.9406760543282828	0.1431130898443125	-0.9861932260731754	-0.08331605105018325	0.9302236687390142	0.16277877523483242	-0.3289179174973246
2892	2524760972.0	0.33537175367688377	-0.02921157622766883	0.9416328746650613	0.1424734370969165	-0.9864503406084101	-0.08134522257233662	0.9312502921113545	0.16143856208430218	-0.3266657069768273
2893	2524777639.0	0.33262113658496606	-0.02793836131392541	0.9426466079417133	0.14170253155770632	-0.9867322179189977	-0.07924596311985266	0.9323537805184589	0.15993429303232112	-0.3242490553034644
2894	2524794306.0	0.32978744654413883	-0.02640620980940374	0.9436858334135353	0.1414176080565916	-0.9869479550058832	-0.07703761575527718	0.9334030749003611	0.15885983190601466	-0.32174874292426336
2895	2524810973.0	0.3266964882288896	-0.024851956170624565	0.9448025110325464	0.1412369293246609	-0.9871457001598649	-0.07480305107969537	0.9345167384128829	0.15787889957300855	-0.31898701963522597
2896	2524827640.0	0.32338823374296527	-0.023537720166985743	0.9459735863151499	0.14033022476265766	-0.9874436740850672	-0.07254252909463588	0.9358031194084938	0.1562080863423042	-0.3160246121216004
2897	2524844307.0	0.3201829909962997	-0.02253786569389908	0.9470875867028492	0.13832160124282503	-0.9878912202471787	-0.07027141373390139	0.9372032793936886	0.1535023829408001	-0.3131884920063502
2898	2524860974.0	0.31701288891251217	-0.0220331781438423	0.9481652637194768	0.13472999666027072	-0.9885451090417915	-0.06801761087745123	0.9388027781505904	0.1493087621354977	-0.31041301081993766
2899	2524877641.0	0.31407533106272273	-0.02212299157523044	0.9491402739646042	0.12899734620494813	-0.9894628794407118	-0.06574872531826531	0.9405936269664612	0.14308662918895745	-0.3079120742312973
2900	2524894308.0	0.31148780366483425	-0.02276234780512898	0.9499774858860901	0.12120014746978516	-0.9905964543269968	-0.06347589249537922	0.9424891895514561	0.13490937772142067	-0.30579991396574824
2901	2524910975.0	0.3094487030086523	-0.02387865607918073	0.9506162790475007	0.11123443389501259	-0.9919125841315592	-0.06112549515144455	0.9443878445439244	0.12465646884660816	-0.30428993386633024
2902	2524927642.0	0.3076758142056408	-0.025433925434563492	0.9511512544227048	0.09965363622643206	-0.9932835222297436	-0.05879623503018444	0.9462582872238139	0.11287586058969301	-0.3030747332860167
2903	2524944309.0	0.3063730619410728	-0.027283201537551635	0.9515204537111712	0.0873702422861996	-0.9945638845462929	-0.056649098130858444	0.9478934474294581	0.10049033023157103	-0.30232384267577606
2904	2524960976.0	0.3057195184556887	-0.029764199560687835	0.9516562764253351	0.07402169302836753	-0.9957430915771169	-0.054922532149017655	0.9492398880137919	0.08723409884304012	-0.3022149020194186
2905	2524977643.0	0.3056257511461588	-0.032846425317480415	0.951585000186641	0.059522276486832754	-0.9967909953255342	-0.05352392212605811	0.9502894289837025	0.07299879438589696	-0.30268990267274243
2906	2524994310.0	0.305712899813653	-0.036244529590346256	0.9514336324527852	0.04528170272727036	-0.9975909883124512	-0.05255271102337056	0.951046366002019	0.05914857658947767	-0.30333521985056777
2907	2525010977.0	0.3066991453952996	-0.04030999155007889	0.9509525428721592	0.030456461588075023	-0.9981755355364571	-0.05213448191016862	0.9513191042764397	0.04495225064154365	-0.30491188399426616
2908	2525027644.0	0.3085155056172935	-0.045365861966610924	0.9501368961164134	0.014764935531579537	-0.9985133457332865	-0.05246994445648695	0.9511047153034488	0.030216501461038298	-0.30738702569724863
2909	2525044311.0	0.31251803358469965	-0.051720120349560805	0.9485027716540313	-0.002865694232274285	-0.9985634357291681	-0.05350563167860656	0.9499075041712848	0.014003355875880141	-0.3122172953942395
2910	2525060978.0	0.31855835499663177	-0.05939040780190885	0.9460408838538445	-0.023766617227323206	-0.998221952863838	-0.054663339874875705	0.947605256616599	-0.005070727938790653	-0.319403452315032
2911	2525077645.0	0.32205825065879307	-0.06875412152860086	0.9442199711695516	-0.0481078337840809	-0.9972594256123067	-0.05620742260605727	0.945496758064882	-0.027322313230088158	-0.3244832379161605
2912	2525094312.0	0.3231414702116157	-0.07999932947208495	0.9429632535329744	-0.07621404922823416	-0.9953839177330401	-0.05832902381028443	0.9432767403735299	-0.05301852131511431	-0.3277468954358636
2913	2525110979.0	0.3225066020335755	-0.09193272330186789	0.9420922810590582	-0.10731787567145745	-0.9924063353119746	-0.06010440245125348	0.9404639095712939	-0.08171927568792348	-0.3299236196075065
2914	2525127646.0	0.3202757334185426	-0.10356010795086731	0.9416468332790269	-0.13999406168206524	-0.9882671003589524	-0.06107209708096456	0.9369232184533443	-0.1122650541767711	-0.331015770521155
2915	2525144313.0	0.3158747960637994	-0.11378876156616245	0.9419528814929612	-0.1725404239649877	-0.9831178855087119	-0.06090176755121196	0.9329806618090408	-0.1432876161226734	-0.3301753227548146
2916	2525160980.0	0.30845349749828554	-0.1226555588514329	0.9432984966403362	-0.20470537928839866	-0.9769769895253327	-0.06009716822289746	0.9289521772252157	-0.17456109480884074	-0.32646022209094766
2917	2525177647.0	0.2969357491446596	-0.12926231852745887	0.9461080349985438	-0.2331394532867553	-0.9706249223956902	-0.05944119232917122	0.9259995443849057	-0.20292489505545255	-0.3183493847421115
2918	2525194314.0	0.2852074511930684	-0.1341658029965781	0.9490291076095806	-0.25839370700993003	-0.9642567859075684	-0.05866466576119134	0.9229785490257181	-0.22849154937872262	-0.30968081939456754
2919	2525210981.0	0.2746878934572196	-0.13725214645412853	0.9516871384450721	-0.2768056983706461	-0.9591476394890391	-0.05843296169238249	0.9208285217876206	-0.24738159583190306	-0.30145842085781405
2920	2525227648.0	0.26541514977280173	-0.13872819286229493	0.9541012979638184	-0.28837010793458406	-0.9557154012415988	-0.05874310750552908	0.9199986299559784	-0.25954298359765327	-0.2936664103099821
2921	2525244315.0	0.25740228961657885	-0.1391739335416586	0.9562294063260576	-0.2943058664988948	-0.9538507680634507	-0.05960511059548124	0.9203956313697265	-0.266081432060388	-0.2864830767571021
2922	2525260982.0	0.25134510455392123	-0.13881951835146306	0.9578907973988717	-0.2939518934297453	-0.953865026731078	-0.06110478809706976	0.9221810683189318	-0.2662154242413237	-0.2805555651384696
2923	2525277649.0	0.24743738945482463	-0.13862428394742973	0.9589358926434257	-0.2895975301304363	-0.9550506359817965	-0.06333682383193279	0.9246123559860816	-0.2620335677176278	-0.27646048641178167
2924	2525294316.0	0.2451617677682757	-0.138606227900052	0.9595228091150584	-0.28299877935753703	-0.9568527235241902	-0.06591324879327332	0.9272579999691986	-0.2553843751517674	-0.2738090985001469
2925	2525310983.0	0.243427324742147	-0.1386944617190426	0.9599515528699074	-0.2753589091232244	-0.958882629908744	-0.0687137047884851	0.9300110798992396	-0.24760441907962027	-0.27160898902078806
2926	2525327650.0	0.2416670718831005	-0.13821458639162384	0.9604653843195188	-0.26643357693136105	-0.9612137027521113	-0.07128370588806665	0.9330649363527754	-0.23867330338805864	-0.26911870763442475
2927	2525344317.0	0.24049456613255954	-0.1373676389216497	0.9608811036948346	-0.25802133899075386	-0.9633664671566955	-0.07314395794217199	0.9357282470280197	-0.23033710455573375	-0.26712818267406857
2928	2525360984.0	0.2384358110422412	-0.13629836692379832	0.9615462127149867	-0.25231455892342297	-0.9647967942851319	-0.07419237893754083	0.937809003671807	-0.22492198850054385	-0.26443216846869066
2929	2525377651.0	0.23363069897085645	-0.1356414753248556	0.9628177847703512	-0.24981052469209686	-0.9653560432558143	-0.07538177168611832	0.9396868618063406	-0.2229105199876745	-0.2594214752625085
2930	2525394318.0	0.22615059531548865	-0.1356475242008324	0.9646012945339826	-0.25135740870526563	-0.9648464596167456	-0.07675130262090624	0.9411032681525574	-0.22510232904884936	-0.25229661141077453
2931	2525410985.0	0.2185265944139173	-0.136257614675351	0.9662711782811486	-0.254792262873724	-0.9638213632107737	-0.0782897349479088	0.9419803768197844	-0.22909003090817864	-0.24533798610273802
2932	2525427652.0	0.21140307526608954	-0.1379270340561989	0.9676181442307191	-0.2598829716464701	-0.9622881636453224	-0.08038862578943595	0.9422152518486636	-0.2344730760334203	-0.239275564567688
2933	2525444319.0	0.20414722824207876	-0.14112822607499556	0.9687139583003861	-0.26584635067968193	-0.9603586781466031	-0.08388639424129224	0.9421515945066232	-0.2404038957950451	-0.23357298614179028
2934	2525460986.0	0.19656495656249107	-0.14446012131650476	0.9697904367443548	-0.2695603628235368	-0.9589352589934663	-0.08820646151828548	0.942708559760666	-0.24407876271473172	-0.227433790245901
2935	2525477653.0	0.19061527929284094	-0.14916645586314337	0.9702655222903374	-0.2704018883239654	-0.9581300705279635	-0.09417848342861351	0.9436888438945042	-0.2444097714808245	-0.22296912233254454
2936	2525494320.0	0.18704028408675527	-0.15472294736398812	0.9700910996848424	-0.2700430073128926	-0.9575720968697651	-0.10066008890245776	0.94450659411682	-0.2431388263018521	-0.22088640703855653
2937	2525510987.0	0.18503799234421306	-0.16134320304044575	0.9693963648693308	-0.27006190388480655	-0.9568008202157534	-0.10769753249065228	0.9448955018727397	-0.24186889272312603	-0.22061715543799498
2938	2525527654.0	0.18319826372055298	-0.1683419112184112	0.9685553144230367	-0.26967616993863475	-0.9560404085205145	-0.11515858909849624	0.945364035457772	-0.24009943399196151	-0.22054274474517727
2939	2525544321.0	0.18080897527752096	-0.17510126158113973	0.9678055913517891	-0.26721439763080096	-0.9557550436291753	-0.12299903363929932	0.9465223611504914	-0.23637225888434232	-0.2195986681927111
2940	2525560988.0	0.1776705828826638	-0.18149644980552984	0.9672084587544316	-0.26292631398362	-0.9558714046834824	-0.13107101557328693	0.9483158320903017	-0.2310170911781523	-0.21755042217946605
2941	2525577655.0	0.17425594571203326	-0.18742074053864693	0.9666997110788593	-0.25737810087121726	-0.9562608853177048	-0.1390022748134903	0.9504690308347401	-0.22458536289648248	-0.2148721391821769
2942	2525594322.0	0.17050285103026874	-0.19303929281596113	0.9662632194281555	-0.2501246664603465	-0.9569818266833119	-0.1470490891708351	0.9530825929680232	-0.21661397652733644	-0.2114520185629926
2943	2525610989.0	0.16610799172811871	-0.1985571712497649	0.9659105470121667	-0.24103583425120773	-0.957981660628571	-0.15547625061773956	0.9561955143645445	-0.20699320675958766	-0.2069878031781271
2944	2525627656.0	0.16146490582249273	-0.20399823913900142	0.9655639816272771	-0.23100069271003415	-0.9590338888159847	-0.16398987794975162	0.9594622265390225	-0.19656733841276094	-0.20197405109098843
2945	2525644323.0	0.1556937186633084	-0.20923127480479237	0.9653920134392827	-0.22131568565262696	-0.959853587808464	-0.17233820602329353	0.9626935302851569	-0.18682441921435494	-0.19574933750161402
2946	2525660990.0	0.14859949257434518	-0.21444412038920843	0.9653662051455636	-0.21209478010728233	-0.9603988349886688	-0.18069278348526174	0.9658850837744061	-0.17789827706559402	-0.1881972581075572
2947	2525677657.0	0.1402935280341061	-0.2196970390649658	0.9654278517930951	-0.20306424270905515	-0.960728361594036	-0.1891188212786798	0.9690627633568124	-0.1695117289597573	-0.17939658419360274
2948	2525694324.0	0.13128722136798915	-0.2250118894900683	0.9654705148753024	-0.1937026851821015	-0.9609507138889575	-0.1976183069190367	0.972236049145842	-0.16106947278864542	-0.16974595629019137
2949	2525710991.0	0.12239228884919856	-0.23068424516665	0.9653004230094107	-0.18352798254837632	-0.9610994769267751	-0.20641045291554921	0.9753653711568692	-0.1518965914132776	-0.1599681789139659
2950	2525727658.0	0.11410009175082912	-0.23641444862799021	0.9649297267378469	-0.17388717312696883	-0.9610318357733946	-0.2148977935017738	0.9781331300412863	-0.1432690444930197	-0.15076326079550428
2951	2525744325.0	0.10658637293086347	-0.2433696383145268	0.9640594194613212	-0.16353826781709174	-0.9606690739874014	-0.22443298608621304	0.9807622444123899	-0.13373910957848306	-0.14219448127239828
2952	2525760992.0	0.10012206360910908	-0.2512166740084956	0.9627386743445818	-0.15289330387528438	-0.9599930163340807	-0.23459975750177892	0.9831577747283259	-0.12370768484577993	-0.13452582912342054
2953	2525777659.0	0.09454703585419437	-0.25994074919794424	0.9609847370887828	-0.1425314695475443	-0.9588985775843536	-0.24535341468037702	0.9852642479049989	-0.11377312869529016	-0.12771075517387653
2954	2525794326.0	0.09048213949831038	-0.2687770156182443	0.958943115261358	-0.1335706276137989	-0.9574682697235084	-0.2557604346092781	0.9869001316600702	-0.10494488242892591	-0.12253449221062113
2955	2525810993.0	0.08738712931733823	-0.27887326745579105	0.9563436570230418	-0.12547705516984498	-0.9554515781105452	-0.2671475070293043	0.9882403544966063	-0.0966539320700372	-0.11848636697874643
2956	2525827660.0	0.0838608188795588	-0.29043840482280464	0.9532118841374329	-0.12027012587973862	-0.952538569168042	-0.2796522323675803	0.9891928325042201	-0.09119104808742995	-0.11481172793314456
2957	2525844327.0	0.07841656232724512	-0.3029367058260347	0.9497790243083114	-0.11950322316673712	-0.9486994121079148	-0.2927258190164616	0.9897321973167986	-0.09054710226930374	-0.11059565934110585
2958	2525860994.0	0.06977853939673076	-0.3150018104618714	0.9465224851240475	-0.12355891732900176	-0.9442580116618985	-0.30513931467577765	0.9898808763624763	-0.0956591177988883	-0.10481022752477265
2959	2525877661.0	0.058572181810080934	-0.32528932324387294	0.9437987898389943	-0.12918277368290237	-0.939942427022044	-0.31594310384545754	0.9898894435751898	-0.10341706854989063	-0.0970762557526216
2960	2525894328.0	0.04575829655169055	-0.33285765716338966	0.9418662104377604	-0.13504244973506926	-0.9362600366747971	-0.3243157111446493	0.9897826605200959	-0.11235178589327216	-0.08779157784408201
2961	2525910995.0	0.03121612941167616	-0.33755821150033855	0.9407869084512424	-0.14184986215612738	-0.9332147504164808	-0.33013458802644946	0.9893958610540279	-0.12314496925899387	-0.07701393818887778
2962	2525927662.0	0.01379459382598855	-0.33928827621235874	0.9405812962237887	-0.15039140450086774	-0.9306740839435157	-0.333508882832459	0.9885302901952134	-0.13685472261030945	-0.0638643113626298
2963	2525944329.0	-0.01009368728475736	-0.33656847499872006	0.9416048954386513	-0.1618185623486038	-0.9286913155438122	-0.3336872687306701	0.9867689042305845	-0.15573728542176218	-0.04508910703298574
2964	2525960996.0	-0.038217395385824804	-0.32811228985209895	0.9438653272252011	-0.16982497450559622	-0.9286821204168338	-0.32971047489011834	0.9847329123798482	-0.17289258071445956	-0.020229849475389083
2965	2525977663.0	-0.06732708881561465	-0.31383394735821335	0.9470878082824087	-0.17169930822234464	-0.931435751219442	-0.3208532201899213	0.9828460767930973	-0.1842164347604089	0.008825785890297172
2966	2525994330.0	-0.0951204501389313	-0.2943320495499098	0.9509578037815961	-0.16957764775139603	-0.9365354104189775	-0.30683032186285153	0.9809156545536781	-0.19044702580798423	0.03917153318958086
2967	2526010997.0	-0.11869973060205462	-0.2710065754762061	0.9552307626975064	-0.16466728119049703	-0.9433378258238726	-0.28809448602015864	0.9791808109130458	-0.19149199048145343	0.06734802982360749
2968	2526027664.0	-0.1346042885684999	-0.24944562619460742	0.9589883028855715	-0.1594519628701599	-0.9497308954670373	-0.2694184435636003	0.977986072005027	-0.18917744518773877	0.08806325678975849
2969	2526044331.0	-0.14509737846948706	-0.22910138959859305	0.9625275601484231	-0.1610349904306695	-0.9543828212668675	-0.2514381878865836	0.9762246066445349	-0.1914836383472186	0.10158510534047294
2970	2526060998.0	-0.15457170996856107	-0.2077929811369213	0.9658828414811116	-0.16891363517894914	-0.9576801667088018	-0.2330598252450099	0.9734350365217126	-0.19917523762464234	0.11293119316264794
2971	2526077665.0	-0.16448882551995536	-0.18516023631312375	0.968844215117959	-0.17365403565681914	-0.9614456226640837	-0.2132289627610962	0.9709725548022283	-0.20331748952940804	0.12599323899437298
2972	2526094332.0	-0.17466468589409287	-0.16258199712060348	0.9711124248581076	-0.17267164375210742	-0.9659315122678088	-0.19277141139694148	0.9693692541779232	-0.20135393668935203	0.140640823498148
2973	2526110999.0	-0.18783242084929938	-0.1410032510434537	0.9720272963621284	-0.17591755892371586	-0.9688096537188228	-0.17453041947905856	0.9663187849463619	-0.20377914038584022	0.15716891487630555
2974	2526127666.0	-0.1993104350434572	-0.11930730851527829	0.9726464499588885	-0.18342326384145669	-0.9704760547616991	-0.1566273712220046	0.9626168795343949	-0.20962345591323614	0.17154226874580014
2975	2526144333.0	-0.20350304254827453	-0.09898372593283966	0.9740578697767643	-0.19038218288879033	-0.9718856890944464	-0.13853819607571283	0.9603859308174474	-0.21363620791866225	0.17893695692628642
2976	2526161000.0	-0.2052168881869199	-0.08056391855976733	0.975395039883417	-0.20164103569862435	-0.9717452997770771	-0.1226864502850451	0.9577196466217364	-0.22185699760758945	0.18317355455218626
2977	2526177667.0	-0.20809879424934896	-0.06508687428905152	0.9759398499022611	-0.22126198854012763	-0.9687859883385497	-0.11178927151640106	0.9527528663085907	-0.23920160449750413	0.18720194482585925
2978	2526194334.0	-0.21122757880634424	-0.05289471807943172	0.9760046407425054	-0.24673395316382093	-0.9633119462895884	-0.10560516318778557	0.9457828853958835	-0.2631202062462381	0.19042712715675278
2979	2526211001.0	-0.21341233857578	-0.043723822786946254	0.9759832995827914	-0.2704141564483292	-0.9573236515253721	-0.10201769563397761	0.9387924998294116	-0.2856915356656967	0.19248113859030638
2980	2526227668.0	-0.21655309927647612	-0.035475489759993456	0.975626078382513	-0.28949729625048815	-0.9520581908355847	-0.09887626978467012	0.932360483213124	-0.30385307450997173	0.19590109354832058
2981	2526244335.0	-0.21816353420702944	-0.027519395663595604	0.9755241438347947	-0.30504157266327125	-0.9475938524187629	-0.0949501437876033	0.9270136521591344	-0.31829007794852615	0.19833586410456555
2982	2526261002.0	-0.21798711630999512	-0.020330703356148158	0.9757398626805697	-0.3180437038034387	-0.9437259435192894	-0.09071684518113332	0.9226753598063857	-0.33010302335736263	0.1992540448183808
2983	2526277669.0	-0.21845671782704487	-0.014221915337323539	0.975742998724753	-0.3298034283303328	-0.939982192653884	-0.0875395690825364	0.9184260237481265	-0.3409269930905078	0.20065498818736338
2984	2526294336.0	-0.2214754001789622	-0.009194458888020493	0.9751226123115623	-0.3397446968396568	-0.9365779564219691	-0.08599577032493033	0.9140690280744111	-0.35033868394769796	0.20430520904983498
2985	2526311003.0	-0.22822108359109988	-0.0034426385522417433	0.9736032483739478	-0.34681550609737505	-0.934110227851594	-0.08459956828178944	0.9097439979109103	-0.3569681084674682	0.21198968796201392
2986	2526327670.0	-0.23901559700867225	0.0049802375197254	0.9710029565458774	-0.3498171514350054	-0.9332816892958722	-0.081321885042969	0.905814277293357	-0.35911068719726297	0.22481105264693507
2987	2526344337.0	-0.2532774491191278	0.0160681975979948	0.9672602270297583	-0.3510745520847367	-0.9332232800924756	-0.07642622829855428	0.9014417300337328	-0.35893749110310713	0.2420055471149326
2988	2526361004.0	-0.272376010536568	0.029260549004512942	0.961745875559723	-0.35412360229479933	-0.9324288683510291	-0.07192273467669513	0.894655119686876	-0.3601669414834932	0.2643331062891817
2989	2526377671.0	-0.29239931720456386	0.04490647314829453	0.9552413558717434	-0.3579468062756924	-0.9314220163354402	-0.06578078262422477	0.8867788468244704	-0.36115984848125776	0.2884212902503178
2990	2526394338.0	-0.3122057735983648	0.06267759201851023	0.9479446578733423	-0.3596955606958081	-0.9313340051935348	-0.05688650442677212	0.8792875858031745	-0.35873178034421493	0.31331270517407217
2991	2526411005.0	-0.33011962499979075	0.08133926848610219	0.9404280709294801	-0.3611113983948604	-0.9313772933346957	-0.046204928415104374	0.872135076200531	-0.35485244942466193	0.33683845979640115
2992	2526427672.0	-0.34629382971812395	0.09986226236797466	0.9327958576526296	-0.3648947146055613	-0.9303578182042235	-0.035863314950003666	0.8642525271887155	-0.3527915229438302	0.3586163836007664
2993	2526444339.0	-0.36457467881042027	0.118052436298714	0.923660611834356	-0.3715100583343517	-0.9280057213755304	-0.028029585274989277	0.8538533715613504	-0.35336808483254323	0.3821850553005639
2994	2526461006.0	-0.38785770251712426	0.1344113207109548	0.9118662179634001	-0.3757345161677571	-0.9264354496670703	-0.02325792252878761	0.8416590615910459	-0.35164037661353753	0.4098280975930886
2995	2526477673.0	-0.40494134182207486	0.14303291587139455	0.9030858733590423	-0.3816106412441935	-0.9239912350680521	-0.02476925526961299	0.8309006126923564	-0.3546572746959272	0.42874513330500286
2996	2526494340.0	-0.419335076405141	0.14740522170859727	0.8957844575060087	-0.3853309398606368	-0.9223349177947082	-0.028607100565197274	0.8219964479743286	-0.35716942762457754	0.44356717584591276
2997	2526511007.0	-0.4379714966694582	0.15580686597098756	0.8853842039597352	-0.3872532157266445	-0.9215045654654631	-0.02939868595161005	0.8113050690181149	-0.3557436666233247	0.46392944360420274
2998	2526527674.0	-0.45974653730585324	0.1710129367522577	0.8714285380331803	-0.3918553352113292	-0.9196520690217102	-0.026257726681965854	0.7969206470544572	-0.3535458208032677	0.48981918591542445
2999	2526544341.0	-0.47885147164802294	0.1876484106312632	0.8576067525900688	-0.39871871970855693	-0.9168087332724933	-0.022025647533167214	0.7821282827353143	-0.3524908801413833	0.5138341451895361
3000	2526561008.0	-0.49731345364160656	0.20170235852965201	0.8437982504074261	-0.40227023426315234	-0.9153383707634986	-0.018284573659035352	0.7686728741492874	-0.34852808433697247	0.5363489414322302
3001	2526577675.0	-0.5178495242944339	0.21357410204768176	0.8283827455485508	-0.40236561093302825	-0.9153472151859146	-0.015536756092628945	0.7549395905147109	-0.34135843125066845	0.5599469939981491
3002	2526594342.0	-0.539971706133679	0.22605372797887416	0.810759069417011	-0.40415128666527084	-0.9145824469756885	-0.014166339356686264	0.738303659791749	-0.33531874351252117	0.5852085493115204
3003	2526611009.0	-0.562171787011874	0.23830188879948408	0.7919438690225935	-0.4061309869946732	-0.9137173079960648	-0.013352994838511267	0.7204307761961651	-0.32913962214085224	0.6104478731606559
3004	2526627676.0	-0.5838858144731343	0.24856585184549757	0.7728469272458597	-0.4077544529128272	-0.9129776974765312	-0.014423246521251154	0.7020068815808047	-0.32355330504690266	0.6344285594189629
3005	2526644343.0	-0.6028483970537702	0.2561123911951221	0.7556323532287491	-0.40872876083891607	-0.9125011683467772	-0.01680529169194328	0.6852113617219029	-0.3189797185434896	0.6547803669362209
3006	2526661010.0	-0.6201276245094745	0.2628271552200593	0.7391641331931409	-0.4089855108864373	-0.9123489557556651	-0.0187145616167666	0.6694569300598779	-0.3139128372820689	0.673265289008965
3007	2526677677.0	-0.6364443634291871	0.2690102453173283	0.7228914580858786	-0.40734681384536797	-0.9130790099040325	-0.01884926849241736	0.654986370475939	-0.30646404289407736	0.6907044555406989
3008	2526694344.0	-0.6522806892228268	0.27497807171009514	0.7063405429009383	-0.40369376377848115	-0.9147419546589141	-0.01668836340547769	0.6415303948788073	-0.29603076945714146	0.7076754453711495
3009	2526711011.0	-0.6673772140298648	0.2809113962058569	0.6897075044360562	-0.4008692035521535	-0.9160156478374157	-0.014805896138444352	0.627623721537992	-0.2863636157033156	0.7239366987272613
3010	2526727678.0	-0.6817038373573658	0.2865508213549019	0.6731779147543934	-0.40021044075587525	-0.9162965320995133	-0.015240353420896524	0.6124634529849355	-0.2798022373806844	0.7393234926028882
3011	2526744345.0	-0.6957905007338433	0.29117638225890075	0.6565758855632503	-0.40057756676210465	-0.9160812549253542	-0.018241364569026752	0.5961654066578331	-0.27570173882115256	0.7540393617812625
3012	2526761012.0	-0.7090575224433218	0.29495507537911086	0.6404989721885912	-0.4007115282819286	-0.9159448071574723	-0.021803241576025617	0.5802307308032726	-0.2721150744618247	0.7676494546875781
3013	2526777679.0	-0.721642506608055	0.2994088384806214	0.6241685990949307	-0.40116384699183816	-0.9156767631041522	-0.02456895150003946	0.5641805212191859	-0.26812387612964883	0.7809032760374746
3014	2526794346.0	-0.7338152035284959	0.30417891905759586	0.6074458266145097	-0.40056681688364026	-0.9159195451382492	-0.025250981078987322	0.5486906890791393	-0.261852195015997	0.7939596688013593
3015	2526811013.0	-0.7449232623144315	0.3085839237072271	0.59149412109697	-0.39950751753485797	-0.916387461878536	-0.02505520195388558	0.5343061638199208	-0.25497055073334846	0.805919934958041
3016	2526827680.0	-0.7558287418006648	0.3124092199726527	0.5754332214463316	-0.39827967382928553	-0.9169140747167281	-0.025335370547993674	0.5197078164531125	-0.2483325569925237	0.817456253664435
3017	2526844347.0	-0.7664103416151459	0.3154892383065174	0.5595370664916925	-0.3971729342038463	-0.9173530846258175	-0.026776453525530125	0.504845370981316	-0.24275472938806192	0.8283726774577167
3018	2526861014.0	-0.7761777253568751	0.31807866118151057	0.5444025201639	-0.3963089182615088	-0.9176631986354239	-0.028870316530922147	0.4903951263687481	-0.23816007048029864	0.838327144295471
3019	2526877681.0	-0.7852542582498904	0.32054097437434326	0.5297444984589846	-0.39548422590070026	-0.9179563971386095	-0.030794155549834473	0.47641156258443024	-0.23368683467292328	0.8475980688607139
3020	2526894348.0	-0.7939456856944114	0.3227495110640818	0.5152504257884002	-0.3944173751419482	-0.918356426939476	-0.03250241968061687	0.4626933999457601	-0.22902887636028685	0.856423138080574
3021	2526911015.0	-0.8024895320008942	0.3247993047126009	0.5005156967440648	-0.39314258689126985	-0.9188461175127413	-0.034069322039073785	0.44883121259714764	-0.22411431009637206	0.8650568296988361
3022	2526927682.0	-0.8109664008941553	0.3263484585347324	0.4856234963763436	-0.39126692984496503	-0.9195957580892137	-0.03540948056693213	0.4350214778956043	-0.21872431350064597	0.8734506216456634
3023	2526944349.0	-0.8192179492943314	0.3275186786592277	0.47075839523401397	-0.38907325241588847	-0.9204766978123502	-0.0366695110274739	0.42131218331364806	-0.21319982156133507	0.8814997902879512
3024	2526961016.0	-0.8270413871204466	0.3289956295458527	0.4558118249120088	-0.38729021580707546	-0.9211816810871913	-0.037823262279783026	0.40744181514664957	-0.20781286333888094	0.8892721636826936
3025	2526977683.0	-0.8343646503991942	0.3304480790011367	0.4411798921626972	-0.38540407283547706	-0.9219514676192974	-0.03833004039197399	0.39408036084795817	-0.2020137580440564	0.8965997494728963
3026	2526994350.0	-0.8410298654798515	0.33248390674343337	0.42675896842077854	-0.38436039394346844	-0.922364558466037	-0.03886783829047316	0.38070441675736433	-0.19671825803004794	0.9035297859058432
3027	2527011017.0	-0.8470871715086455	0.3346497015886677	0.41285942049576435	-0.3845478872420563	-0.9221708748716354	-0.04151866997091197	0.36683272248145127	-0.1939341505900866	0.9098479537547735
3028	2527027684.0	-0.8528382908170722	0.33643744534207853	0.3993453331239907	-0.3852813630127744	-0.9216342948823976	-0.04635189113342518	0.3524558426686016	-0.19339098186917086	0.9156280943158331
3029	2527044351.0	-0.8582150540823176	0.3381588536954627	0.386154775464263	-0.38580719643514805	-0.9211822010135837	-0.05075588354684206	0.3385553545955755	-0.19254075465506026	0.921036551756511
3030	2527061018.0	-0.8630142761343911	0.33992378189140093	0.373708685600001	-0.38586396215581126	-0.9210126540519364	-0.05333567085569155	0.32606036541973593	-0.1902301594933236	0.92601140625885
3031	2527077685.0	-0.8672273312800611	0.341905775762689	0.3619629765334803	-0.3857145410453011	-0.9210282068962306	-0.054141803883202555	0.314866715781576	-0.1865676354613206	0.9306188632793213
3032	2527094352.0	-0.8709739299108462	0.3439291250621296	0.3508805642232907	-0.38567583214747636	-0.9210190146277938	-0.054572219960339785	0.30439869564932176	-0.18285713447400992	0.9348287022010747
3033	2527111019.0	-0.8744054125407417	0.3455859590383282	0.3405664684536849	-0.3855945158561971	-0.9210012671991255	-0.05543947293427673	0.2945030455888033	-0.17979713772239098	0.9385845435578808
3034	2527127686.0	-0.8769175048478701	0.34614858343499993	0.3334619136833	-0.38534008267421016	-0.9209932100567791	-0.05731079927851464	0.2872781063290737	-0.17875308449157545	0.9410199915032247
3035	2527144353.0	-0.8793080828930733	0.34645935371521064	0.3267770058956827	-0.3846558599547717	-0.9212138743421465	-0.058351239249797515	0.2808151790081218	-0.1770054065354238	0.9432984264249921
3036	2527161020.0	-0.8817971821122308	0.3475314812966017	0.318834752068716	-0.38418967659895886	-0.9214180757873931	-0.058198127178165554	0.2735544223983909	-0.1738119648357048	0.9460218701838953
3037	2527177687.0	-0.8844428857396796	0.34878098899940446	0.31002032768363064	-0.38378620299129096	-0.9215943873722693	-0.058068369681430795	0.26545985055747323	-0.17033968086305956	0.9489549308926505
3038	2527194354.0	-0.8868663789345328	0.34974607510773004	0.30190347606857443	-0.38320184633828885	-0.9218579962992325	-0.05774235552946422	0.25811697131044403	-0.1668997232049914	0.951588204800596
3039	2527211021.0	-0.8891016908950586	0.3501961493457664	0.2947216317662241	-0.3822283798876923	-0.9222964427994725	-0.05719035939622684	0.2517928689537854	-0.16349901706994224	0.9538702336068491
3040	2527227688.0	-0.8915082359322464	0.3502442825654724	0.28730124920572786	-0.38071385188737983	-0.9229849745826347	-0.056175614600707996	0.2454995483622085	-0.15946058831225562	0.9561915563991669
3041	2527244355.0	-0.8944164845475473	0.349548225247702	0.27898958832864873	-0.37822051648178046	-0.9240959314626211	-0.05473527533945714	0.23868052514158428	-0.15447571874056015	0.9587329446919641
3042	2527261022.0	-0.8975385054945649	0.3483622312216168	0.2703116479415567	-0.37569444346308545	-0.9250958465852283	-0.05523911459937494	0.23082096158179766	-0.1511338164973586	0.9611868981656988
3043	2527277689.0	-0.9005534256125093	0.34647503087534903	0.262599658410861	-0.3725813150649776	-0.9263379594834402	-0.055508093864846286	0.22402386319771095	-0.14782773014554054	0.96330694532843
3044	2527294356.0	-0.9029902546766567	0.3436944271242387	0.2578424726896794	-0.3689759471970494	-0.9277808020641416	-0.05549354657307811	0.22014847341970598	-0.1452478023412385	0.9645919995345251
3045	2527311023.0	-0.9049221409196813	0.3406831336202655	0.25505082109261507	-0.36519396829204986	-0.9293439476006473	-0.05434328460031373	0.2185160964241445	-0.1423194629160812	0.965399340210481
3046	2527327690.0	-0.9066658291292544	0.33803241146383933	0.2523710821177887	-0.3612119047536727	-0.931113774372915	-0.05052820041569101	0.21790602137982687	-0.1369716320008136	0.9663103734688189
3047	2527344357.0	-0.9082438216589509	0.33530302671080014	0.2503298637736227	-0.3566741833129889	-0.9331859816177336	-0.044129929414850874	0.21880742075248816	-0.1293669354615925	0.9671543354774976
3048	2527361024.0	-0.9094286069634585	0.3330687351677703	0.2490076835968021	-0.3526546520286571	-0.9350092172080776	-0.03731568220581054	0.22039579224443073	-0.12174966689761355	0.9677823688057505
3049	2527377691.0	-0.9103953795174888	0.33114947708117104	0.24803281392201842	-0.34899475935022917	-0.9366289979817618	-0.030475860705758973	0.2222226606340662	-0.11430723497901651	0.9682721441475887
3050	2527394358.0	-0.9112070792537538	0.3296696856262466	0.24702136971714633	-0.3461050628000538	-0.9378611619778146	-0.025054467821016155	0.22341205030618688	-0.1083251551243535	0.9686860773982822
3051	2527411025.0	-0.9119872202212201	0.3285068828907361	0.24568788746412518	-0.3439978502019977	-0.9387182590348359	-0.02176026679550333	0.2234833085704086	-0.10436119033443254	0.9691047171190555
3052	2527427692.0	-0.9127997634256442	0.3276113328072986	0.24385939905263787	-0.3425730717290946	-0.9392687153921422	-0.020444334464298844	0.22235170882226377	-0.10220124706587994	0.9695950818161149
3053	2527444359.0	-0.9137305994425872	0.32705708252139865	0.2411017553127337	-0.3417340305805565	-0.9395715806513176	-0.020569326084050127	0.21980501355851167	-0.10118749727597677	0.9702818386477028
3054	2527461026.0	-0.9144584932151297	0.3272116994021183	0.238113771044626	-0.341611262492613	-0.9396126014352509	-0.020734140017941396	0.2169502466578867	-0.1003028563823499	0.9710159254495387
3055	2527477693.0	-0.914882239424045	0.327820522275163	0.23563572131933644	-0.3419901125752878	-0.9394732423901215	-0.020803599057236624	0.2145536084226657	-0.0996179301543236	0.9716187611942154
3056	2527494360.0	-0.915044204815189	0.32902494855204534	0.23331670849826186	-0.34299427771891394	-0.9391059727602054	-0.02085419329989739	0.21224756461787628	-0.09910880463628258	0.972177152661668
3057	2527511027.0	-0.914935309913289	0.33046556387959725	0.23170215744272576	-0.3442555375490899	-0.9386492851845332	-0.020631148522371107	0.2106691803293996	-0.0986409170289121	0.9725679749750318
3058	2527527694.0	-0.9145581365111932	0.331996526470328	0.2310015613644434	-0.3455796694743075	-0.9381799161845946	-0.019827680497110436	0.21013830442639986	-0.09796300975114994	0.9727513257422442
3059	2527544361.0	-0.9140178800635883	0.33362898535582997	0.23078781392115028	-0.34704159187219996	-0.9376583768275271	-0.018944705750592858	0.21007962403544408	-0.0974087701164864	0.9728196559843556
3060	2527561028.0	-0.9134309778556595	0.33514658027210603	0.2309125774520882	-0.34828426275822094	-0.9372268666661345	-0.01743194521969435	0.21057521461135045	-0.09634609556745283	0.9728183329174523
3061	2527577695.0	-0.913102768989603	0.3360622332512009	0.2308798576007346	-0.34900044492602167	-0.9369787662143281	-0.01641587965705643	0.21081276694014264	-0.09556655819737123	0.9728437748422661
3062	2527594362.0	-0.9131795753588554	0.3360696618651166	0.23056505702574948	-0.34896252614426015	-0.9369940066436766	-0.016351968103158213	0.21054267618332717	-0.09539084802902448	0.9729195072655634
3063	2527611029.0	-0.9135618359033002	0.33535672308763675	0.23008833143146104	-0.34827544752763806	-0.9372420530057761	-0.016779354187269696	0.21002139088772637	-0.09546309421677343	0.9730250834444838
3064	2527627696.0	-0.9141212629150333	0.334446277935481	0.22918988603716312	-0.3473102233094192	-0.9375952197144941	-0.017053232927838294	0.20918395127587153	-0.09518871332060724	0.9732323378232872
3065	2527644363.0	-0.9147730465716449	0.33351436356751274	0.22794394609242902	-0.3460169879700822	-0.9380908245427654	-0.016057675572345456	0.20847665889049405	-0.0935616064570906	0.9735418370542814
3066	2527661030.0	-0.9153424813353253	0.3326605848314265	0.22690323303669108	-0.3445842272104147	-0.9386520951568993	-0.013926758968425712	0.20835031130452142	-0.09093502931861061	0.9738177284390197
3067	2527677697.0	-0.9157641913781802	0.33194801554714704	0.22624425023363287	-0.3432715815998172	-0.9391657960616185	-0.011499077089332663	0.20866376555460622	-0.0881936646378721	0.974002726106203
3068	2527694364.0	-0.9160939236966883	0.3313965083489172	0.22571725060383016	-0.34215804056212745	-0.9395976863520933	-0.009168592066352926	0.20904496703984948	-0.0856302636685168	0.9741497111324156
3069	2527711031.0	-0.9164018200621474	0.3309652733460821	0.22509929370332704	-0.3411510796740852	-0.9399839231504439	-0.006794487170202396	0.2093409778901149	-0.0830193474899264	0.9743121383408693
3070	2527727698.0	-0.9166242003587509	0.33067774446455134	0.22461590467399511	-0.34020346864083695	-0.940343537536366	-0.0039536487370590845	0.20990873074129993	-0.08003911999409885	0.9744393588259593
3071	2527744365.0	-0.9167401035029149	0.33057424184794415	0.2242950138904608	-0.3393351491936229	-0.940665380859933	-0.0005456861543014641	0.21080616487950915	-0.07661143438347964	0.9745211382881847
3072	2527761032.0	-0.9167580582280611	0.33073371948627345	0.22398631536031338	-0.3387151925009869	-0.9408843051501683	0.002956804204574684	0.21172312354330658	-0.07315689384370884	0.9745878040690874
3073	2527777699.0	-0.9166762301220696	0.331000118225635	0.22392769115008163	-0.33826749015154634	-0.9410292617988834	0.006247683156349576	0.2127904937626777	-0.07002035541800908	0.974585735372405
3074	2527794366.0	-0.9165688448919427	0.33120226610836034	0.22406831881847314	-0.3377574797126745	-0.9411845138715024	0.009570566681559922	0.21405942509404327	-0.06690866739930486	0.9745264453852738
3075	2527811033.0	-0.9165802978295593	0.3311251962265043	0.22413536547059185	-0.336961829316119	-0.9414306936691103	0.012844243910515057	0.2152609653760092	-0.06375228185451214	0.9744733774422634
3076	2527827700.0	-0.916705592474062	0.3309684298521347	0.2238543168401983	-0.33616318719843485	-0.9416738416515735	0.015642490906433784	0.21597492516347672	-0.0609120217229768	0.9744970791696868
3077	2527844367.0	-0.9168097506360698	0.33097635964626215	0.22341560038174502	-0.33566155600267084	-0.9418141538266094	0.017816269916384075	0.21631273878459714	-0.058657898080102404	0.9745604393942588
3078	2527861034.0	-0.9168553914616876	0.33107617622562907	0.22308015752964655	-0.3353401056359709	-0.9418925352062122	0.01963327977873941	0.216617646325713	-0.0568068451740677	0.9746023689903887
3079	2527877701.0	-0.9168196899280884	0.33111796741012683	0.22316484449471552	-0.33507076115796663	-0.9419575927885556	0.021058926967227817	0.21718480880850133	-0.0554687754162315	0.9745532175190017
3080	2527894368.0	-0.9167259672884617	0.3311873633830733	0.22344670781732887	-0.3350164463606685	-0.9419624651169329	0.02169550595631725	0.2176636891328086	-0.0549694883203346	0.9744746655439006
3081	2527911035.0	-0.9167300125609612	0.33116972452185633	0.22345625439915104	-0.335084747651004	-0.9419469491340822	0.021310957478680864	0.21754148101372134	-0.055340388299260836	0.9744809620825048
3082	2527927702.0	-0.9168480330842443	0.33103058506664523	0.22317803650894322	-0.33516989579101364	-0.9419408300283769	0.02021419503451931	0.21691202176226554	-0.05626921428176523	0.9745680839936836
3083	2527944369.0	-0.9169384399615542	0.3309520868665341	0.22292288693527562	-0.33537627865032293	-0.9418955844629281	0.018853638585173985	0.21620973391485537	-0.05747542229445101	0.9746537471289699
3084	2527961036.0	-0.9170179719278428	0.3310850579652216	0.2223976698473086	-0.3359412998248104	-0.9417336108318529	0.016770489009490436	0.21499181899170847	-0.05933372246679278	0.9748117906267191
3085	2527977703.0	-0.9169013921804592	0.33130940163238554	0.222544192032789	-0.336683312248224	-0.9415064541389025	0.014489446792611618	0.21432728307684257	-0.061641521759133934	0.9748149252674159
3086	2527994370.0	-0.9169560307759772	0.3315251101663613	0.22199715978531603	-0.3375171638286783	-0.9412487805525499	0.011528106062267576	0.2127764125663611	-0.06435708537154045	0.9749791607095353
3087	2528011037.0	-0.9170593555857793	0.33170875191223537	0.22129492139997803	-0.33814033139138583	-0.9410496747847269	0.009307302191485345	0.21133682740856863	-0.06629338950745359	0.975162515629315
3088	2528027704.0	-0.9174298982729111	0.3323766144833774	0.21874224077558563	-0.33899839795027353	-0.9407556778820536	0.007670770484488915	0.20833258972638888	-0.067115875001717	0.9757525256849966
3089	2528044371.0	-0.9175632045193386	0.3334831583201425	0.21648729484435142	-0.3398392880810873	-0.9404468043526358	0.008310623289198057	0.2063662375214078	-0.06594536602171522	0.9762500625923258
3090	2528061038.0	-0.917624142596396	0.3345923188516853	0.21450853850064133	-0.34068098832801225	-0.9401352325586338	0.009066901001569913	0.20470075016002706	-0.06475897364362394	0.9766800285746333
3091	2528077705.0	-0.9180696916933171	0.33513882906091796	0.21173097659486378	-0.3410880758997007	-0.9399892162560087	0.00889931466206409	0.2020073406418142	-0.06404872034702366	0.9772874683268638
3092	2528094372.0	-0.9185452739238187	0.3350994463828909	0.20972110238623326	-0.3408928378079979	-0.9400590669097004	0.009001325017667983	0.20016656285060916	-0.06322429718663361	0.9777198143444928
3093	2528111039.0	-0.9188748424312606	0.33497927627010204	0.20846560487640337	-0.3407837854467881	-0.940103035900085	0.008526046446099361	0.19883519689301402	-0.06320732838051399	0.977992534795391
3094	2528127706.0	-0.9189560176250272	0.3352815920917918	0.20762006568524227	-0.34100744052699916	-0.9400205842168359	0.008673335797959703	0.1980751452756659	-0.06282957307695423	0.978171090132494
3095	2528144373.0	-0.9187937786346063	0.3363479339348753	0.20661088954864576	-0.3419284138215346	-0.9396810960460167	0.00918681420547647	0.19723831312356957	-0.06220534600416096	0.9783800604901305
3096	2528161040.0	-0.918185128362038	0.338099421461431	0.20645786800757718	-0.3433461535718142	-0.9391446340633691	0.010989774220670018	0.19760943520547963	-0.06079586760156322	0.9783937722616314
3097	2528177707.0	-0.9173832312811195	0.34055636093598335	0.20598391196948496	-0.3452503572974577	-0.9384083395688196	0.013855649160871189	0.19801565026580625	-0.058405079006295206	0.9784572801078639
3098	2528194374.0	-0.9162037270702397	0.34375053499114583	0.20592790047952064	-0.34772963722710437	-0.9374273013634736	0.017724391450821442	0.19913520506557536	-0.055368080621388455	0.9784066361957052
3099	2528211041.0	-0.9147966618786355	0.34716319298364945	0.20645770717777337	-0.35073978157711705	-0.936254340923921	0.02023399911908	0.2003214243033982	-0.053902936269854984	0.9782462882252843
3100	2528227708.0	-0.913454436263146	0.35037828839083063	0.20696871235887299	-0.35370088790532606	-0.9351002923372329	0.021980108412053986	0.20123785619550316	-0.05312718979141982	0.9781006220929953
3101	2528244375.0	-0.912222679146959	0.3532588336454613	0.20750416887714082	-0.35653384785892717	-0.934006882046734	0.022688314618901806	0.2018251693442917	-0.05328546462955193	0.977970991532142
3102	2528261042.0	-0.9110051619157855	0.35583576936207645	0.20844783569347253	-0.3593166152852607	-0.9329504447286012	0.02224944180534595	0.2023886482556216	-0.05462941445050166	0.9777803752039911
3103	2528277709.0	-0.9098607993134621	0.3581137293108078	0.20954207871397462	-0.3618154259579585	-0.9319958507227456	0.02175618933653556	0.20308353801214205	-0.05602045264625753	0.9775575612074102
3104	2528294376.0	-0.9088814798022821	0.3596842606432475	0.21109639579570036	-0.3633719763564233	-0.9313736932405775	0.02244661084070773	0.20468332240620277	-0.056305205664552965	0.9772074812156482
3105	2528311043.0	-0.9081051668163822	0.3603557513960217	0.21328089093305935	-0.36376645449512035	-0.9311693307086033	0.024446761170792405	0.20741015545397143	-0.055384203375156746	0.9766850144396907
3106	2528327710.0	-0.9077044604813387	0.3598955297453937	0.21574943821842113	-0.36276678606998525	-0.9314721171405784	0.027567261635904283	0.21088592021928676	-0.05324380394873507	0.9760595401891902
3107	2528344377.0	-0.9078235729771573	0.3581494947295934	0.2181405504988139	-0.360289619221617	-0.9323150874223374	0.031304441311456835	0.2145873962471489	-0.05017486611459106	0.9754151588847965
3108	2528361044.0	-0.9083013189999075	0.3560542491642086	0.21957706063052257	-0.35750422588578845	-0.9332741866443608	0.03449668124776718	0.21720829260604121	-0.047166346004525524	0.9749850734384347
3109	2528377711.0	-0.9090779655841759	0.3537045725095786	0.22015977805937223	-0.35437421564954197	-0.9343386404088445	0.037818253816427866	0.21908027700390517	-0.04363920742598302	0.9747304508442958
3110	2528394378.0	-0.9099527329322843	0.35099359228128285	0.2208835032467283	-0.35088490527478877	-0.9355174699910906	0.0410712380111834	0.22105611748913295	-0.040131801840303113	0.974435031903965
3111	2528411045.0	-0.9099233251439158	0.3494507377592123	0.22343617486562534	-0.34890459361160064	-0.9361593997840286	0.04325693878132576	0.2242880445225824	-0.03859741021817078	0.9737582415613676
3112	2528427712.0	-0.9092540598842911	0.3499498767238261	0.2253711125342221	-0.3492305938986562	-0.9359839626394089	0.04440736388282429	0.22648409849065781	-0.03832891157871026	0.9732604212994924
3113	2528444379.0	-0.9088530179176412	0.3504584465968119	0.2261969695441247	-0.3503522895823974	-0.9356764884044393	0.04198550025317607	0.22636135934909063	-0.041089977562502926	0.9731763194496387
3114	2528461046.0	-0.9090034334923421	0.3503208111722138	0.22580541879852162	-0.3499989952938568	-0.9357707459972777	0.04282305721208486	0.22630391333873193	-0.04010536367296701	0.9732307530140194
3115	2528477713.0	-0.9098983095622131	0.3489045360270573	0.2243895964512859	-0.3476443751201761	-0.9364759071660207	0.04643558705218276	0.22633703785092113	-0.035756118879465684	0.9733925442798235
3116	2528494380.0	-0.9108298928017566	0.34744691697393615	0.2228666557923087	-0.34604925035598705	-0.9370582599264662	0.046601865109058546	0.22503071502974908	-0.03467646736462849	0.9737344195951532
3117	2528511047.0	-0.9110440599442633	0.3471332245493587	0.22247976369602307	-0.3462412260047174	-0.9370987302818129	0.04430556532721955	0.22386543783046098	-0.03666734402951495	0.9739300650594978
3118	2528527714.0	-0.910622201125532	0.3474686740490227	0.2236799664071532	-0.34682477402880263	-0.9369217914997142	0.04347565678441591	0.22467706366507725	-0.03798785552752806	0.9736925284170863
3119	2528544381.0	-0.9097791764892391	0.3482191873701216	0.22593195341485928	-0.3477019645316879	-0.9365992236865206	0.04341932807646863	0.22672713531328093	-0.03905498351170263	0.9731749659622024
3120	2528561048.0	-0.9088816564771431	0.34929460295752446	0.22787587600294507	-0.3489508292018598	-0.9361464823623216	0.043163437768393695	0.2284019555929825	-0.040287019068142124	0.9727330069324802
3121	2528577715.0	-0.9082844701981555	0.3499866117838921	0.2291913889501254	-0.34955551187947753	-0.9358884289782607	0.04386106039848815	0.22984835285799388	-0.040276793276459395	0.9723926751121859
3122	2528594382.0	-0.908328272574649	0.34926606751704736	0.23011510885366018	-0.3486942728169526	-0.9361781993153393	0.044527331284793206	0.2309806341367414	-0.03979438663764557	0.9721442040386408
3123	2528611049.0	-0.9090671845302678	0.34789354522159277	0.22927480280956228	-0.3473189756832988	-0.9367041648804421	0.044213534420331435	0.23014426593012507	-0.03943841640818467	0.9723570476788341
3124	2528627716.0	-0.9097474774237206	0.3472607084439061	0.22752917986977808	-0.3465142819864647	-0.9369858989849413	0.04455645276260857	0.22866433849768128	-0.038306989889813015	0.9727513530316985
3125	2528644383.0	-0.9102053939866244	0.34669783589272934	0.22655408039793187	-0.34593105675477787	-0.9372086197663589	0.0444039075775943	0.22772317565451514	-0.037955416252953594	0.9729858897470652
3126	2528661050.0	-0.9105792846229183	0.34541699628987255	0.22700763222785486	-0.34491619797161244	-0.937639567373155	0.04318400251355184	0.2277678265085355	-0.038976151302625404	0.9729350835678673
3127	2528677717.0	-0.9113411629706961	0.34297824868660864	0.22764710760975193	-0.3428580438370673	-0.9384761234952326	0.04136335824834446	0.227828107246316	-0.0403545109898261	0.9728647732297295
3128	2528694384.0	-0.9122786655644869	0.3403908344998635	0.22777558285375127	-0.34052685191687987	-0.9393851102145186	0.03996345619233453	0.2275721852060548	-0.04110589368623259	0.9728932140912474
3129	2528711051.0	-0.9132883262939366	0.3382066040059477	0.2269817747352954	-0.3386287342163551	-0.9401398155324613	0.03831067232011799	0.226351526211443	-0.0418738612663589	0.9731451928280777
3130	2528727718.0	-0.9142797148072068	0.33648779365167625	0.22554061234172368	-0.3372155202020477	-0.9407197817323368	0.036496372317357625	0.22445109941124164	-0.042687902043691314	0.9735499201336277
3131	2528744385.0	-0.9149581185177222	0.33520238798022906	0.22470202591623847	-0.3360219485689236	-0.9411746055396526	0.03577166430603075	0.22347458790308514	-0.04277523792606575	0.9737707058552928
3132	2528761052.0	-0.9152122406868003	0.33431918433715085	0.22498274929689252	-0.33514401716806713	-0.9414905492144512	0.03569360581842747	0.22375218938257702	-0.04273439743360225	0.9737087495871084
3133	2528777719.0	-0.9152179267910537	0.3337321840435944	0.225829528214931	-0.3345313909005036	-0.941700656197416	0.035897390149297326	0.2246439293247434	-0.04269313119049587	0.9735052139391402
3134	2528794386.0	-0.9151019818164213	0.3333863206080363	0.22680812178379678	-0.33401776608790884	-0.9418493596804384	0.03676840501287905	0.22587716753426168	-0.04211110187330372	0.9732451696698603
3135	2528811053.0	-0.915071030385755	0.3329059226237352	0.22763711479192583	-0.33331121504420214	-0.9420573341329749	0.037836663859675865	0.2270432630018132	-0.04125076833602025	0.9730106529926471
3136	2528827720.0	-0.9152531251203174	0.3320734432788749	0.22812046209493098	-0.33245300679301104	-0.9423567199275116	0.03793165804111308	0.22756694670311664	-0.04112226497134695	0.9728937475859569
3137	2528844387.0	-0.9155129704946267	0.3313210015433232	0.2281718536376353	-0.33189673464534375	-0.9425895410353835	0.037006954244624884	0.22733358394188838	-0.04184914655085118	0.9729173092021244
3138	2528861054.0	-0.9156253065946754	0.3308946624798756	0.22833970365605688	-0.33172121851199454	-0.9426937005330674	0.03591128185110276	0.22713725170549257	-0.04286384627633114	0.9729189892123984
3139	2528877721.0	-0.9156789262032863	0.33040378364412915	0.22883497079957088	-0.3313518510675947	-0.9428419638050112	0.03542572627892042	0.22746000725682636	-0.043386300164383405	0.9728204223065895
3140	2528894388.0	-0.9158684308780055	0.32958094848722497	0.2292627656540005	-0.3305180933768378	-0.9431335859259681	0.035451784848788304	0.227909647166591	-0.0433063216249766	0.9727187441576903
3141	2528911055.0	-0.9160984445454013	0.3286289063782964	0.22970999498084824	-0.32937681624816484	-0.943503452591421	0.03622358163256616	0.22863628937620342	-0.042476780017716494	0.972584788252216
3142	2528927722.0	-0.9164086064324326	0.3274080991042436	0.23021555702756652	-0.3280193568260978	-0.9439561195051859	0.03674433284337547	0.22934377603056966	-0.04184233609225703	0.9724457060969434
3143	2528944389.0	-0.9168662213728773	0.32578085331490697	0.23070146882677914	-0.32632910565129253	-0.9445359282952444	0.03689437578098957	0.22992530724182977	-0.041457397082455494	0.972324862027552
3144	2528961056.0	-0.9173254780634501	0.32419701060270456	0.23110661092217363	-0.3245953855816408	-0.9451132787128909	0.03739954624959643	0.23054674787289664	-0.04070858283998205	0.9722093438804174
3145	2528977723.0	-0.9179742338435126	0.32252453085167493	0.23087059795115314	-0.3228634075401773	-0.945706549340815	0.037394419442398505	0.230396454119766	-0.040212554417688846	0.9722656141179955
3146	2528994390.0	-0.9186883371841471	0.320737320190582	0.23051965330268703	-0.32120649488985836	-0.9463034752969359	0.036552979105852756	0.22986545360797106	-0.04046361424669874	0.9723808765909046
3147	2529011057.0	-0.9192954617472231	0.3189631696059145	0.2305609473564605	-0.31951979454499396	-0.9468968376744522	0.03596497874387301	0.22978893555801336	-0.04060634478835761	0.9723930120368226
3148	2529027724.0	-0.9197430331328191	0.31751180200581863	0.23077913378522869	-0.3180333449403073	-0.947396992035656	0.035968472137017676	0.2300598715763404	-0.04031370819968899	0.9723411234857182
3149	2529044391.0	-0.9201236049838104	0.31640112079781624	0.2307875263299189	-0.31681470824096697	-0.947793142396235	0.03628498131267818	0.23021944356154683	-0.03973021500767611	0.9723273717332326
3150	2529061058.0	-0.9204639314699355	0.31550590016821345	0.23065597287292552	-0.31574916651849894	-0.9481261829401676	0.03686739841895109	0.23032284885738902	-0.038894320695363485	0.9723366788884718
3151	2529077725.0	-0.9207714202674873	0.3147512906103732	0.23045957710127674	-0.314860652599808	-0.9484045773853393	0.03730317733061733	0.23031014103381978	-0.038214953272781314	0.9723666264754984
3152	2529094392.0	-0.9210745888813999	0.3139988656886529	0.23027443206574164	-0.3140356799724886	-0.9486709821558138	0.03748278697936691	0.2302242242275499	-0.03778994524689436	0.972403582170006
3153	2529111059.0	-0.9213788990412957	0.31318173974215535	0.23016976841785103	-0.313156251594119	-0.9489560172056535	0.03762498500603803	0.23020444498091502	-0.03741223464671209	0.9724228700569358
3154	2529127726.0	-0.9216445460538553	0.3123520360472902	0.2302336558939535	-0.3122866145637744	-0.9492396043591456	0.037699388329116235	0.230322385133273	-0.037153453314667365	0.9724048641452362
3155	2529144393.0	-0.9218272093096453	0.31167880759568345	0.23041466331838498	-0.311586513103203	-0.9494673264648343	0.0377576591952867	0.23053945655479305	-0.03698806390516825	0.9723597287526712
3156	2529161060.0	-0.9219341672546764	0.3112291476817586	0.23059446845428255	-0.31119631623405053	-0.9496062948514443	0.03747982845303567	0.23063877386680626	-0.03720621469322415	0.9723278529268913
3157	2529177727.0	-0.9219852365750904	0.3105999746852694	0.23123771159368606	-0.3107509848552392	-0.949781269703127	0.03673370567496201	0.231034735373436	-0.03798941229640012	0.972203556671287
3158	2529194394.0	-0.9218910428679203	0.3104540022228288	0.2318085796162987	-0.310457347097073	-0.9498500570656575	0.03743133347630867	0.23180409986310768	-0.03745906560760565	0.972040985602181
3159	2529211061.0	-0.9220093022492983	0.3099946315857953	0.23195295849320247	-0.31017305407264606	-0.949972900380087	0.03666285682667608	0.23171431352639763	-0.038142062495792745	0.9720358326602768
3160	2529227728.0	-0.9219631129497057	0.30974366915260115	0.23247124075887837	-0.3102971413528933	-0.9499896543620079	0.03514741346636539	0.23173196246592953	-0.039730542722659516	0.9719679940958199
3161	2529244395.0	-0.9218702987454989	0.30929970908526283	0.2334284521018306	-0.3099099057210229	-0.9501206543539101	0.03502274269791564	0.23261771778364498	-0.040055363309668426	0.9717430551556615
3162	2529261062.0	-0.9217489607880391	0.3091285260421406	0.23413331175461505	-0.30972665659272225	-0.9501747424000737	0.035176087059929306	0.23334149112848346	-0.04009380615465898	0.971567926202779
3163	2529277729.0	-0.9214249474056762	0.30967501101300976	0.23468586206360953	-0.310016834038904	-0.950033693152071	0.036408027800629	0.2342341326769902	-0.03920930284931217	0.9713892122414831
3164	2529294396.0	-0.9210335053013531	0.3107382898089585	0.23481694436072215	-0.31082267417848	-0.9497225685845981	0.03763386689687993	0.23470523498388612	-0.03832437824254112	0.9713108126153449
3165	2529311063.0	-0.9205200800847815	0.31184537973157345	0.23536193681387474	-0.3121173949664296	-0.9493191176879286	0.03709372657987334	0.23500109344442935	-0.039315034430652	0.9711996777942418
3166	2529327730.0	-0.919886832295459	0.31322312307346606	0.23600739594667525	-0.313763482383666	-0.9488079069128376	0.03627716778023868	0.23528853115250067	-0.04067961346651489	0.971073877805553
3167	2529344397.0	-0.9193387954256041	0.31458283224273864	0.23633412974755977	-0.3154229766265277	-0.9482952988839315	0.03527565634678309	0.23521166008822855	-0.04211493526971621	0.9710313111253249
3168	2529361064.0	-0.9189178513472485	0.3156945997764431	0.23648869348733692	-0.3167908499542602	-0.9478717099935616	0.034391550984776226	0.23501816921381544	-0.04331444407899611	0.9710253956892754
3169	2529377731.0	-0.9185936113621604	0.31639205443071583	0.23681605743220924	-0.31761154676901776	-0.947609861594221	0.034036092143098676	0.235177980524573	-0.04395017750240026	0.9709581347173993
3170	2529394398.0	-0.9184175173240586	0.316620187109641	0.23719384685730927	-0.3178956421111723	-0.9475191852626037	0.0339080268670634	0.23548168633470878	-0.04426116439891754	0.970870395432374
3171	2529411065.0	-0.9183954941573599	0.31653897790702124	0.2373874296946599	-0.3178445500090662	-0.9475397969901511	0.033810873242162365	0.23563649619910973	-0.044400547129980435	0.9708264690837212
3172	2529427732.0	-0.918480820246701	0.31622889864395426	0.23747055923077948	-0.31756265933913064	-0.9476393105966218	0.033670378753717506	0.23568398382666295	-0.044486185208345304	0.9708110213080619
3173	2529444399.0	-0.9186203197510922	0.31582337307621106	0.23747064062566953	-0.31723067747402983	-0.9477630768497366	0.033314372719420365	0.23558736258502805	-0.04472971248605204	0.9708232833070836
3174	2529461066.0	-0.918743998896128	0.3155072773224382	0.2374123468755014	-0.31700290023877814	-0.9478538470008642	0.032897506985565345	0.23541160917115922	-0.04503601539039714	0.9708517557203062
3175	2529477733.0	-0.918863727336515	0.3152222512254228	0.23732758566509593	-0.31676432620780937	-0.9479420954682266	0.032651880212639386	0.2352654080551571	-0.045174284406999034	0.9708807711562508
3176	2529494400.0	-0.9189721751753946	0.31494279829113925	0.23727868648058187	-0.3165076456498462	-0.9480326466844836	0.03251170659323187	0.23518726899769676	-0.04522316469421043	0.9708974270624293
3177	2529511067.0	-0.9190284619697848	0.31471642136402744	0.23736103347700532	-0.31627286220701967	-0.9481102623235258	0.03253316935367315	0.23528315434988456	-0.04517194484007992	0.9708765795293104
3178	2529527734.0	-0.9190575692153948	0.3145901401151231	0.23741572864963456	-0.3161139786586742	-0.9481588193295656	0.03266199357277197	0.23538295810120358	-0.045032178160863516	0.9708588805617504
3179	2529544401.0	-0.919069605599558	0.3145725402608426	0.2373924534961323	-0.3160453641657522	-0.9481746602061794	0.032865506724120586	0.23542809486637292	-0.044821096112619384	0.970857704038472
3180	2529561068.0	-0.9190750618419607	0.3146098755385927	0.23732184247091048	-0.3160440509972233	-0.948169872242805	0.03301592343593905	0.23540855661904275	-0.044660044610976266	0.9708698635171888
3181	2529577735.0	-0.9190837517431857	0.3146190182080332	0.23727606424476066	-0.31607152620948753	-0.9481636139216589	0.03293253034044766	0.23533773093423793	-0.04472845421912698	0.9708838848090393
3182	2529594402.0	-0.9191155778903224	0.31453478324759887	0.23726446132264564	-0.3160186673981573	-0.9481861794235491	0.03278980033587314	0.23528441583588167	-0.044842382603509756	0.9708915513007664
3183	2529611069.0	-0.9191758368709588	0.31433309934823755	0.2372983008087163	-0.3158403159898413	-0.9482496052732488	0.0326738564385366	0.23528849463586232	-0.04491535097558392	0.970887189913808
3184	2529627736.0	-0.9192098158489745	0.3141429026684293	0.23741851475811282	-0.3157123018317466	-0.948301076897935	0.032416200059798186	0.2353275524008922	-0.04515865650426768	0.9708664371702911
3185	2529644403.0	-0.9192187904020002	0.3139779162997408	0.2376019432747905	-0.3156445426136707	-0.948336753650309	0.03203005454569098	0.2353833853314428	-0.04555512871309041	0.9708343793654216
3186	2529661070.0	-0.9192261774860184	0.3138264610343374	0.23777339417837878	-0.3156140018336535	-0.9483631437727589	0.031545988334430244	0.23539548948735145	-0.046046714194532	0.9708082527671968
3187	2529677737.0	-0.919233090571501	0.3137177962799391	0.23789003656232793	-0.3156223090201659	-0.9483759944713385	0.03107299726900037	0.23535735222666412	-0.046520075319790584	0.9707949316643012
3188	2529694404.0	-0.919205743868396	0.31369361178807487	0.23802755799003905	-0.31569125940661946	-0.9483647442230677	0.03071385109324752	0.2353716830326267	-0.046910871214125814	0.9707726515453143
3189	2529711071.0	-0.9191267096134466	0.31379369470118607	0.23820077422405367	-0.315897530954713	-0.9483085762169566	0.030324811789773545	0.23540357179082014	-0.04737469196889802	0.970742394741765
3190	2529727738.0	-0.9190128619224557	0.31400579753956265	0.23836048064358506	-0.31615673864963845	-0.9482264404291765	0.030191625948895393	0.2355000556847533	-0.04761277961384946	0.9707073436365471
3191	2529744405.0	-0.9189102869726997	0.3142362997261272	0.23845215962574645	-0.31638945742609886	-0.9481475346836912	0.030231832608327014	0.2355877665019338	-0.04766340742824301	0.9706835755625827
3192	2529761072.0	-0.9188013222096765	0.3145235312229367	0.238493351296854	-0.3166718605264839	-0.9480511403800533	0.030297986315521247	0.23563332331494508	-0.04768630339137947	0.9706713931153117
3193	2529777739.0	-0.918687189213202	0.3148229555325118	0.238537953050077	-0.31694413368842567	-0.9479550107344272	0.030458393654060903	0.23571224935509816	-0.04762146882726858	0.9706554132186631
3194	2529794406.0	-0.9185969981853616	0.31512017275793197	0.23849283353143821	-0.31720548544859994	-0.9478618754021884	0.030635684427882892	0.23571218663056284	-0.04750938728354472	0.9706609208131236
3195	2529811073.0	-0.91852107305979	0.3153587498705611	0.23846990842697302	-0.31740229457044633	-0.947789551899741	0.030834213320660622	0.23574312661561878	-0.04736902141447776	0.970660267067591
3196	2529827740.0	-0.9184606602920156	0.3155535053584445	0.23844496377980662	-0.3175398401486177	-0.947735117596684	0.031090139793670382	0.23579326838216885	-0.04716070535941718	0.9706582315396377
3197	2529844407.0	-0.9184121546214573	0.31566023064674276	0.23849053027660927	-0.31757566622828326	-0.9477127222362665	0.03140529145204626	0.23593391121929713	-0.0468957876527421	0.9706368912405886
3198	2529861074.0	-0.9183804171141975	0.31572893447128036	0.2385218006782241	-0.3175505375569091	-0.94770775914095	0.031806593048573	0.23609122295941165	-0.046532173833481974	0.9706161400058522
3199	2529877741.0	-0.9183854930979646	0.31577918348811407	0.23843572161651658	-0.31749774530051056	-0.9477115045334714	0.03221934052702902	0.23614247351186354	-0.04611302907513743	0.9706236761758982
3200	2529894408.0	-0.9183910391089087	0.31584862648203144	0.23832235403728558	-0.3174755887992181	-0.9477065213453706	0.0325822024431584	0.23615069299294678	-0.04573832691377383	0.9706394055724712
3201	2529911075.0	-0.9183995517010018	0.31588991044446624	0.23823481675604527	-0.3174291215353794	-0.9477100357250084	0.03293085160425156	0.23618005046293947	-0.04537898925153666	0.9706491287266643
3202	2529927742.0	-0.9184175996564281	0.31589224959810835	0.23816212815049273	-0.31736060321514764	-0.9477233124094548	0.03320799064334859	0.23620194785023033	-0.04508447359676634	0.9706575246049761
3203	2529944409.0	-0.9184365952482276	0.31585373187250226	0.23813996004672727	-0.31726732078642705	-0.9477469647903878	0.033423612785128246	0.2362533971604342	-0.04485655796894363	0.9706555627705088
3204	2529961076.0	-0.9184632774125876	0.3157747125246009	0.23814184633225266	-0.31714233365086497	-0.947782472531363	0.033602454803479814	0.236317473435656	-0.044662240117823854	0.9706489252333441
3205	2529977743.0	-0.9185110361961701	0.3156417932079247	0.23813385892460548	-0.31699101409331526	-0.9478310849573088	0.033659045927398684	0.23633487548377147	-0.044570088278315705	0.9706489241022904
3206	2529994410.0	-0.9185416367254802	0.3155647218975413	0.2381179705427615	-0.3169254520983035	-0.9478551542926608	0.03359857576032606	0.23630387092462518	-0.044603954696460266	0.9706549169563168
3207	2530011077.0	-0.9185557932598092	0.3155301505914532	0.23810917398659387	-0.3169042602219873	-0.9478644073811869	0.033537368308595855	0.23627726196567903	-0.04465186768374133	0.9706591915756816
3208	2530027744.0	-0.9185598222203177	0.31555443720480214	0.23806144199121987	-0.3169311228507613	-0.947856016952493	0.033520657742813584	0.23622556248453297	-0.04465835070080173	0.9706714765261985
3209	2530044411.0	-0.9185861425894588	0.3155255544355784	0.23799815785156797	-0.3168784785823448	-0.9478707310751978	0.03360218716555777	0.23619383661297672	-0.04454999067442684	0.9706841761752127
3210	2530061078.0	-0.918635355555597	0.3154403470822477	0.237921144406867	-0.31678836942424055	-0.9479010628943857	0.03359618968313409	0.23612329940260673	-0.04450800373332149	0.9707032631463138
3211	2530077745.0	-0.918694008921529	0.315286962348042	0.23789798096039994	-0.31666265215804135	-0.9479479615819408	0.0334578370621766	0.23606372592993985	-0.044595891133469144	0.9707137187626877
3212	2530094412.0	-0.918731035078827	0.31522364937693903	0.2378388867625984	-0.31662808154785527	-0.9479643712126914	0.0333197972180454	0.23596597881540488	-0.04469453864636766	0.9707329473428191
3213	2530111079.0	-0.9187574834474496	0.3151928326951122	0.23777755324449878	-0.316609109834442	-0.9479729818522618	0.033255033423136446	0.23588844435273146	-0.044729228651550754	0.9707501933685544
3214	2530127746.0	-0.9187793332052421	0.3151707767985663	0.23772235554764165	-0.31661173999326575	-0.9479761414274085	0.03313972514730905	0.23579979426065617	-0.04481759405178697	0.9707676551523756
3215	2530144413.0	-0.9187795046269678	0.3151741076596662	0.23771727690337746	-0.316664957051893	-0.947965544144351	0.032933753057122844	0.23572765398388604	-0.04501787396177075	0.9707759083182976
3216	2530161080.0	-0.9188083900050252	0.3150846634090405	0.23772420436460742	-0.31664267790644873	-0.9479829127214523	0.032646771913698275	0.2356449808177696	-0.04527750073230276	0.9707839053789623
3217	2530177747.0	-0.9188422541125892	0.3149582444655228	0.23776083845009494	-0.3165825135619413	-0.9480126837948709	0.032364540331199634	0.23559376936604143	-0.045533016671888416	0.9707843840053558
3218	2530194414.0	-0.9188485286673433	0.3148729551374256	0.23784953960199973	-0.3165555153660162	-0.9480296456977115	0.03213092855221231	0.23560557518279218	-0.045769127163364925	0.9707704156707133
3219	2530211081.0	-0.918856926907652	0.31482294022634316	0.23788329950012543	-0.3165298705443922	-0.9480415984612425	0.03203074523333416	0.2356072768973326	-0.045865497863784244	0.9707654542569647
3220	2530227748.0	-0.918868455068726	0.31478633132683514	0.23788721674231397	-0.3165167759533293	-0.9480493737981557	0.031929850939753826	0.2355799075042747	-0.045955962080201765	0.9707678181365307
3221	2530244415.0	-0.9188699340446395	0.31475507417730275	0.2379228605839318	-0.31650384272533094	-0.9480561278017673	0.031857433632015236	0.23559151480666557	-0.04603066170673629	0.970761462118239
3222	2530261082.0	-0.9188569716285064	0.31475629770392133	0.23797129815465312	-0.3165124030348363	-0.9480539518979891	0.03183713265541764	0.23563056765794138	-0.04606709613515666	0.9707502553380404
3223	2530277749.0	-0.9188260990333128	0.31479949103271754	0.23803335938638315	-0.3165776696874555	-0.9480345999160833	0.03176438913645914	0.2356632741656735	-0.04617009646398889	0.9707374224794367
3224	2530294416.0	-0.918802535062194	0.3148272322039017	0.23808762132063224	-0.316634087542061	-0.9480192207479837	0.03166088594452969	0.23567935032516646	-0.04629655446376929	0.9707274967132078
3225	2530311083.0	-0.9188060180431378	0.31481434423722776	0.23809122174115893	-0.31662497902169995	-0.9480228146455079	0.031644360810694355	0.23567800887486617	-0.04631059893905096	0.9707271524783291
3226	2530327750.0	-0.9188054255765232	0.3148106214798024	0.23809843034897268	-0.31663372773264076	-0.948021573468881	0.0315939661916428	0.23566856471170683	-0.04636128601632309	0.9707270258757796
3227	2530344417.0	-0.9188075735261462	0.3148143338827987	0.2380852326645341	-0.31665545781203674	-0.9480168590778798	0.03151754974551681	0.23563099089221068	-0.04643242494250542	0.9707327469726742
3228	2530361084.0	-0.9188023617707783	0.3148357418713965	0.23807703720587486	-0.31669260431961754	-0.9480065664868508	0.03145384343876992	0.23560138873465553	-0.0464973713031169	0.9707368232884761
3229	2530377751.0	-0.9187972275750396	0.31487480160712356	0.23804519300606763	-0.3167230741118311	-0.9479952575453323	0.03148787062839463	0.23558045106836195	-0.0464634370708154	0.970743529512298
3230	2530394418.0	-0.9187951133312457	0.3149042487256859	0.2380143984155898	-0.31672699501311374	-0.9479905281190111	0.031590650936654405	0.23558342545388625	-0.046360249472472574	0.9707477411358028
3231	2530411085.0	-0.9187821104863543	0.3149521805031878	0.23800117110326943	-0.316763676901328	-0.9479766059943098	0.031640598658365576	0.2355848179450269	-0.046319310053108895	0.9707493574914238
3232	2530427752.0	-0.9187895100510626	0.3149571813122178	0.2379659853004033	-0.3167700811821751	-0.9479748753681803	0.0316283312636291	0.2355473453214177	-0.046320725496762555	0.9707583831734274
3233	2530444419.0	-0.918785687147704	0.3149625351566531	0.23797365934114567	-0.3167917537442369	-0.9479697994624714	0.03156333421444507	0.23553310988515463	-0.04638815317272357	0.9707586174704048
3234	2530461086.0	-0.9187752800465491	0.31498351405782865	0.23798607238064828	-0.3168416010937535	-0.9479569195802079	0.0314496174277237	0.23550665509011048	-0.04650875715158481	0.9707592651715886
3235	2530477753.0	-0.9187915826761969	0.3149610599736584	0.23795284890843185	-0.3168250758683848	-0.9479635751531701	0.031415465678741566	0.23546528173886172	-0.04652516397703157	0.9707685152561083
3236	2530494420.0	-0.9187951717648672	0.3149406910827807	0.23796595017327304	-0.3167951707760599	-0.9479722656554489	0.0314547821649097	0.23549151176748429	-0.04648596184199475	0.9707640306671284
3237	2530511087.0	-0.9187989947977379	0.31492785089744096	0.2379681825114148	-0.31677733974559696	-0.9479775821289416	0.031474129132807616	0.23550058212745328	-0.046464529590702866	0.9707628563699507
3238	2530527754.0	-0.9187891256828329	0.314958863249144	0.23796524323476903	-0.31680525628292033	-0.9479677142851078	0.03149035192851231	0.2355015331552834	-0.04645564695357592	0.97076305077379
3239	2530544421.0	-0.9187782111232146	0.31502014408690115	0.23792626501648423	-0.3168525168564331	-0.9479499939737002	0.03154824063249294	0.23548053279829737	-0.04640169980431715	0.9707707252118289
3240	2530561088.0	-0.918775660363419	0.31505670048826984	0.23788770754540556	-0.316873997508677	-0.9479408449485408	0.0316073437846026	0.23546157993743835	-0.04634037069005587	0.9707782519286647
3241	2530577755.0	-0.9187646898163792	0.31509980210448885	0.2378729901866231	-0.31691787243143665	-0.9479261953623637	0.03160680748456439	0.2354453373506154	-0.04634698328420677	0.9707818757374433
3242	2530594422.0	-0.9187587841566958	0.31510855716571123	0.23788420236714844	-0.31691255835132603	-0.9479259218289946	0.03166823461875852	0.23547553353613648	-0.046293022428818005	0.9707771264200025
3243	2530611089.0	-0.9187735765331517	0.31508420450332797	0.23785932636116264	-0.31688332214331916	-0.9479352979335904	0.0316801369783775	0.23545716215884036	-0.04626678078341312	0.970782833482363
3244	2530627756.0	-0.9187725553841968	0.3151113140772911	0.23782735589766826	-0.3169092615061368	-0.9479265631243983	0.03168202794648012	0.23542623355188855	-0.04626111394734612	0.9707906045548249
3245	2530644423.0	-0.9187814720519685	0.31512327020572667	0.2377770619485115	-0.3169093447900314	-0.9479251863202384	0.03172236316062184	0.23539132056805046	-0.04620785338651822	0.970801607171434
3246	2530661090.0	-0.9187889298083106	0.31513649213399947	0.23773071696181178	-0.316895426567094	-0.9479263435640521	0.0318266523239011	0.2353809488521934	-0.046093801131656155	0.9708095438419817
3247	2530677757.0	-0.918794136090358	0.3151474974366716	0.2376960040584952	-0.31688283782503734	-0.9479274671224969	0.03191839856068554	0.2353775745008944	-0.04599534687477475	0.9708150315523268
3248	2530694424.0	-0.9188069585066582	0.31513688595815004	0.237660505991938	-0.3168447771508921	-0.9479366591144859	0.03202307760145354	0.23537875900757418	-0.0458784635255696	0.9708202750213797
3249	2530711091.0	-0.9188248384119341	0.31513113365282086	0.2375990002503616	-0.31681238711582593	-0.9479442108245455	0.03211984642245226	0.23535256040089186	-0.045761793746724934	0.9708321330414578
3250	2530727758.0	-0.9188505967083974	0.31510726048017174	0.23753104075321002	-0.3167687675214382	-0.9479565926316954	0.03218456787118379	0.23531070704830026	-0.045669605634239704	0.9708466193326535
3251	2530744425.0	-0.9188757464544199	0.31508327757461474	0.23746555701968894	-0.3167355452208537	-0.9479669502737813	0.032206452494417837	0.23525721449401152	-0.0456200545973479	0.9708619127595098
3252	2530761092.0	-0.9188827570938212	0.3150669775270646	0.23746005640447795	-0.3167257465652193	-0.9479712449784653	0.03217639129366401	0.23524302365503247	-0.04564338249887576	0.970864254906781
3253	2530777759.0	-0.9188884859315063	0.31505503587089145	0.23745373190349195	-0.316704151804647	-0.9479772026879187	0.03221340425487379	0.23524971977072207	-0.045602056492882924	0.9708645743827596
3254	2530794426.0	-0.9188804562691917	0.31507105868674296	0.23746354470641964	-0.3167138901516051	-0.9479729296354852	0.03224339410411023	0.2352679724730075	-0.045580178327107555	0.9708611787851595
3255	2530811093.0	-0.918866430275441	0.31511869567671325	0.23745460818412278	-0.31675051884613414	-0.9479589939581695	0.03229325911889887	0.23527344117764984	-0.04554067861618394	0.9708617071795573
3256	2530827760.0	-0.9188602439945508	0.3151414068116254	0.23744840643614432	-0.3167631945640974	-0.9479532878023044	0.032336399217438805	0.23528053590516684	-0.04550228409202625	0.970861788086536
3257	2530844427.0	-0.9188673658885467	0.3151489767273148	0.2374107966642846	-0.3167669883726646	-0.9479517106676991	0.03234546829920977	0.2352476120651516	-0.045482707811974124	0.9708706836174089
3258	2530861094.0	-0.918866288815466	0.3151762285250157	0.2373787864389736	-0.3167962681392137	-0.9479423080213939	0.032334272160358155	0.2352123886438813	-0.045489841017744656	0.9708788835857025
3259	2530877761.0	-0.9188565224957299	0.3151992440689276	0.2373860307714647	-0.31682326922672566	-0.9479336932173336	0.0323222731229688	0.23521417292234734	-0.045509886856843255	0.9708775118699235
3260	2530894428.0	-0.918853498298587	0.31520937508867264	0.23738428448542592	-0.3168299305124974	-0.9479309451239083	0.032337569604726016	0.2352170142568246	-0.04549695740049984	0.9708774294788206
3261	2530911095.0	-0.9188592702528509	0.3151946771763021	0.23738145873282784	-0.31682165398451445	-0.9479346998627857	0.03230858032423416	0.23520561438221496	-0.04552054784135985	0.9708790855133855
3262	2530927762.0	-0.9188674357347285	0.3151783080640713	0.23737158564612165	-0.31681579819062916	-0.9479382750525976	0.032261071078633186	0.2351816012427828	-0.045559420718171796	0.9708830792740729
3263	2530944429.0	-0.9188591529515046	0.315184583369563	0.2373953147039733	-0.3168544133431529	-0.9479297140621998	0.03213312843347524	0.23516193948470893	-0.045693933996875644	0.9708815203791239
3264	2530961096.0	-0.9188576211250143	0.31516630234931786	0.23742551245377616	-0.3168700478596552	-0.9479291002342599	0.03199677637648282	0.23514685809064018	-0.0458325516693671	0.9708786393456061
3265	2530977763.0	-0.9188483924418783	0.3151635720008694	0.2374648491685222	-0.31690658053656545	-0.94792209153601	0.031842229674094266	0.23513368733466838	-0.04599599179982104	0.9708740998804908
3266	2530994430.0	-0.918837383982217	0.31515907753901506	0.2375134051826827	-0.31693016924892137	-0.9479177843077221	0.031735500830915045	0.23514491195126064	-0.046115399140591797	0.9708657169483007
3267	2531011097.0	-0.9188205142209095	0.31517555859429736	0.23755679302347063	-0.31696644413231695	-0.9479080223440357	0.031664719640853434	0.23516193556980727	-0.04620333798105639	0.9708574126093235
3268	2531027764.0	-0.9188072627063038	0.3151774242225168	0.237605566556445	-0.31697247500578407	-0.9479062415899288	0.03165765694999832	0.23520557834978592	-0.04622713938062476	0.9708457073592216
3269	2531044431.0	-0.91880023520666	0.3151544877275553	0.2376631579554754	-0.3169450118047062	-0.9479145105710841	0.03168501445316743	0.23527003055277085	-0.04621395367164523	0.9708307181016338
3270	2531061098.0	-0.9187988957135607	0.31512380067847845	0.23770902271788552	-0.3169200084886803	-0.9479234774249844	0.031666846481139946	0.23530894044867134	-0.04623928191998595	0.9708200818650425
3271	2531077765.0	-0.9187845008980344	0.3151138412361953	0.23777785424828657	-0.3169213713106439	-0.9479241586172378	0.03163279811181066	0.235363304948181	-0.046293159010501156	0.9708043356478677
3272	2531094432.0	-0.9187780124250455	0.31512290498013906	0.23779091370605668	-0.3169455281666963	-0.9479180295189253	0.03157438024873571	0.2353561047846792	-0.04635692040932143	0.9708030386596177
3273	2531111099.0	-0.9187862527286225	0.3151101923589883	0.23777592070766418	-0.31695897024858377	-0.9479172791583889	0.03146177127745005	0.23530582860578161	-0.04645856804119681	0.9708103668995857
3274	2531127766.0	-0.9187883419590646	0.3150881111699147	0.2377971086440892	-0.31695491691842625	-0.9479210528296218	0.03138882354621046	0.23530313070876616	-0.046531277671660924	0.9708075385352631
3275	2531144433.0	-0.918779763679779	0.31507563371913844	0.23784678027884398	-0.31695364967544293	-0.9479227255222162	0.03135108285130597	0.23533833051576197	-0.04658166457970469	0.9707965897730779
3276	2531161100.0	-0.9187851788871488	0.31506260575337347	0.23784311954144172	-0.3169505982392471	-0.9479251870879978	0.03130747450638639	0.23532129808645352	-0.046619675460893656	0.9707988939666278
3277	2531177767.0	-0.9187960359098848	0.3150769127757779	0.23778221849408016	-0.3169666922007229	-0.9479203984178466	0.0312895237848614	0.2352572218479463	-0.0466203528411794	0.97081439125579
3278	2531194434.0	-0.9188193872189231	0.3150346465224343	0.23774798666051444	-0.31692264376999707	-0.9479352969204344	0.03128435260963483	0.23522536329332971	-0.04660305078911878	0.9708229416946574
3279	2531211101.0	-0.9188330755504868	0.31498414957198256	0.23776199190124747	-0.31687281599580064	-0.9479521689625625	0.03127784906391953	0.23523902260748625	-0.04660118965851391	0.9708197213515423
3280	2531227768.0	-0.9188283555624502	0.3149412249065827	0.2378370826190591	-0.3168481045015701	-0.9479625849571113	0.031212436546894443	0.23529073863661915	-0.046679357062551864	0.9708034332119254
3281	2531244435.0	-0.9188390367482615	0.3148605591618177	0.23790261207442542	-0.3168303047245239	-0.9479769447671496	0.030955939625633797	0.23527299580634475	-0.04693123133104573	0.9707955896943803
3282	2531261102.0	-0.9188498193079693	0.3147718308306482	0.23797836891876267	-0.3167992453149533	-0.9479949349786841	0.03072200225631308	0.23527270926647867	-0.04716246145275524	0.9707844531635892
3283	2531277769.0	-0.9188896694603383	0.31463817769758917	0.23800124473248246	-0.3166899797469583	-0.94803510979326	0.03060861524396581	0.23526417510309955	-0.0472466690299143	0.9707824267973932
3284	2531294436.0	-0.918931084291531	0.31451378249786266	0.23800576241275825	-0.3165686803941514	-0.9480765284716275	0.03058049631208093	0.2352656645503053	-0.047243801498977125	0.9707822053909047
3285	2531311103.0	-0.9189829770081448	0.3143977145689054	0.2379587465152244	-0.3164339717561606	-0.9481198192027439	0.030632498324126095	0.2352441911883672	-0.0471474867708275	0.97079209154346
3286	2531327770.0	-0.9190194983591873	0.31431537816993904	0.23792646906453319	-0.31630686858745727	-0.9481568105709677	0.030799796302692806	0.23527245168107774	-0.046952163036207153	0.9707947094345932
3287	2531344437.0	-0.9190621000404786	0.3142447275932214	0.23785522371612527	-0.3161756912250381	-0.9481931975674122	0.03102567268016304	0.23528235919327917	-0.04668951988133284	0.9708049753610125
3288	2531361104.0	-0.9191078054593054	0.3141537698519332	0.23779876120703156	-0.31602134473418186	-0.9482368297074338	0.03126378829884191	0.23531118038924462	-0.04641469243907579	0.9708111684100089
3289	2531377771.0	-0.9191548946436707	0.3140510888002839	0.23775237806579125	-0.3158841991526161	-0.9482785834687519	0.03138313018498742	0.235311394493112	-0.046256261823171774	0.9708186781597546
3290	2531394438.0	-0.9191945842977588	0.3139744711832343	0.23770012125129283	-0.315810585717738	-0.9483041937209417	0.031350121529177	0.23525515965923083	-0.04625135259085205	0.9708325407799364
3291	2531411105.0	-0.9192321450183385	0.3138934463425738	0.23766187727140048	-0.31574938090209875	-0.9483278800188734	0.03124996702159802	0.23519054408059406	-0.04631561639545939	0.9708451326823362
3292	2531427772.0	-0.9192442748467823	0.3138754346420717	0.23763874829173903	-0.3157587861919488	-0.9483287033130747	0.03112971916239725	0.23513050015683007	-0.04642070659515171	0.9708546574514674
3293	2531444439.0	-0.9192414783439659	0.3138519199070656	0.2376806194510804	-0.31574565039325064	-0.9483343036499347	0.0310923266825901	0.23515907116193402	-0.04646526542959441	0.9708456058296882
3294	2531461106.0	-0.9192117469744976	0.31389017533728614	0.2377450778687541	-0.31579676193057316	-0.9483184290416719	0.031057403209224912	0.2352066524957513	-0.046530795895441485	0.9708309408208411
3295	2531477773.0	-0.9191570069435567	0.31399374125428514	0.23781994668172773	-0.3159445145702245	-0.9482742293417001	0.030903878063928303	0.23522215095425864	-0.04673239154528614	0.9708175025620986
3296	2531494440.0	-0.9190982843369727	0.31411588784336997	0.2378855874852546	-0.31612906157363346	-0.9482201284814868	0.030675794547599916	0.23520365676878224	-0.04700847739423347	0.9708086541104115
3297	2531511107.0	-0.9190591555026365	0.31424927560394156	0.23786059250993824	-0.3163144568816927	-0.948164826642187	0.030473363552971644	0.23510727988393038	-0.04723192036101975	0.9708211537891981
3298	2531527774.0	-0.9190157432436317	0.314362454691429	0.23787877322437773	-0.3164636275978027	-0.9481192203028428	0.030343310629681153	0.2350762346091048	-0.04739399933229281	0.9708207727223888
3299	2531544441.0	-0.9189755211920682	0.31442130771219345	0.2379563672321494	-0.3165473174655415	-0.948093797802562	0.030264605956219506	0.23512079290257837	-0.047512017688892766	0.9708042134848786
3300	2531561108.0	-0.9189282446741689	0.3145453856795105	0.23797495979152744	-0.3166968314412115	-0.9480465722055852	0.030179693244582584	0.2351042281524261	-0.047632943190277305	0.9708022994553958
3301	2531577775.0	-0.9188879621620977	0.31471722753131726	0.23790329902838447	-0.31686360077584663	-0.9479899400837486	0.03020814465299669	0.23503695772570032	-0.0476249954856969	0.970818978135489
3302	2531594442.0	-0.9188579010376026	0.3148925162969076	0.23778742792875646	-0.31700062197648804	-0.9479391194428728	0.030364971536148783	0.2349697073396728	-0.04747766854083289	0.9708424731245722
3303	2531611109.0	-0.9188133513381505	0.3150795771070075	0.23771176978186354	-0.31716867460011167	-0.9478801055235172	0.030452215110468722	0.23491712848399296	-0.047414825137240504	0.9708582682874158
3304	2531627776.0	-0.9187520203145807	0.3152544320587768	0.2377169918940892	-0.31732362242911905	-0.9478248261184055	0.030558429967467618	0.23494774699140736	-0.04735759771053339	0.9708536522683268
3305	2531644443.0	-0.9187152246881045	0.31538613997360376	0.23768449389650192	-0.31742878520916384	-0.9477857302192476	0.030678590472873205	0.23494957383855886	-0.04726301202122148	0.9708578193781834
3306	2531661110.0	-0.9187102796763926	0.31547843192475167	0.23758110406180083	-0.31747412529467867	-0.9477645477808081	0.030863274910789842	0.23490764522531632	-0.04707144527354311	0.9708772719837233
3307	2531677777.0	-0.9187212464847905	0.3155333805231333	0.23746569653968175	-0.31746986763844565	-0.9477585183492216	0.03109138205542014	0.23487050559629763	-0.04682388997223361	0.9708982278945655
3308	2531694444.0	-0.918722722849566	0.3156014250965	0.23736954100502883	-0.3175076710555434	-0.9477421024383261	0.031205545767806597	0.23481362256216026	-0.046697406168224	0.9709180783755113
3309	2531711111.0	-0.9187115694525988	0.31573663029733745	0.23723286543484132	-0.317612764818009	-0.9477031214273421	0.031319726396198413	0.23471511195192205	-0.04657439130418118	0.970947806164699
3310	2531727778.0	-0.9187016065926559	0.3158891923495807	0.23706829438118168	-0.3177294007962165	-0.9476595553098908	0.031454651476962706	0.2345962188820402	-0.04642612827481624	0.9709836397693115
3311	2531744445.0	-0.9186886314242522	0.3160461218274284	0.23690936530596907	-0.31785834205279895	-0.9476128588452328	0.03155858264579177	0.23447232860037182	-0.0463111069723846	0.971019056708833
3312	2531761112.0	-0.9186833223194091	0.31618196902830925	0.23674863411127492	-0.31798766985013643	-0.9475690697843965	0.03157055291271546	0.23431772258080197	-0.04627980606393268	0.9710578687365812
3313	2531777779.0	-0.9186653806470048	0.31630385947020134	0.23665541803421575	-0.31810876074800964	-0.9475284184857186	0.031570753828806974	0.23422368525847226	-0.046279203171712684	0.9710805839979151
3314	2531794446.0	-0.9186606607142489	0.31643209807524086	0.23650225741789674	-0.31824393344145185	-0.9474844684369141	0.03152746260851204	0.23405851679392628	-0.04630236903787481	0.9711193033493402
3315	2531811113.0	-0.9186649623314019	0.31657591244699923	0.23629299321603633	-0.31842850609464	-0.9474288659024144	0.03133417561068383	0.2337904478180829	-0.04645681557333897	0.9711764982719697
3316	2531827780.0	-0.9186422518059925	0.3167879506501547	0.23609702988324763	-0.31872550283907386	-0.9473410273408169	0.03096823787084982	0.23347476745206433	-0.04680141279620885	0.9712358934489004
3317	2531844447.0	-0.918592814050341	0.3170362721575821	0.23595602156228038	-0.31908875363224076	-0.9472341624782754	0.030492765363339863	0.23317291712482163	-0.04728047768904304	0.9712852038145114
3318	2531861114.0	-0.9185249892620571	0.31727718248819414	0.2358962347590378	-0.3194599002349686	-0.9471257838188999	0.02996867977236639	0.2329317845271482	-0.04783240635581612	0.9713160374765828
3319	2531877781.0	-0.9184882854469506	0.3174526424375026	0.23580307314827018	-0.31975418846894543	-0.9470419392919063	0.029475823632117676	0.23267257778536654	-0.04832582158300805	0.9713537391265038
3320	2531894448.0	-0.9184456276840971	0.317608409310181	0.23575946921263227	-0.3199865888962607	-0.9469730147055591	0.02916663069332885	0.23252142248511443	-0.048651903918778515	0.9713736563910808
3321	2531911115.0	-0.9183932415027855	0.31787673046165377	0.2356018637299279	-0.32031674002401156	-0.9468692953980393	0.028908882593598667	0.23227363178457466	-0.048917498540193394	0.9714195995110322
3322	2531927782.0	-0.9183587584487333	0.31821063542077743	0.2352853210160098	-0.32071546685811136	-0.9467433405564207	0.028611823256364466	0.23185939726154156	-0.049183723091840714	0.9715051113011914
3323	2531944449.0	-0.9182839554125379	0.3186351204430613	0.23500263243661765	-0.3212053889465873	-0.9465857026179386	0.028330296697623172	0.2314771594425157	-0.04946885504577147	0.9715817809309131
3324	2531961116.0	-0.9181876485472064	0.31904278040006084	0.2348257786742132	-0.32164999296645136	-0.9464389428642997	0.028188817899812826	0.23124170056465565	-0.04964908563614756	0.9716286555137518
3325	2531977783.0	-0.9180594128848942	0.3195038381773991	0.234700259487189	-0.32209679860720286	-0.9462842404081027	0.02828053539541614	0.23112889637696646	-0.049632990491917155	0.9716563175909447
3326	2531994450.0	-0.9179228450583599	0.3200051730434706	0.23455135843858355	-0.3225104634697919	-0.9461312793429792	0.028681059975485382	0.2310944643916561	-0.049318267145509874	0.9716805324041939
3327	2532011117.0	-0.9178090290551739	0.3206140279130504	0.23416496597520436	-0.3230078772315471	-0.9459474334006267	0.029143858514900645	0.23085167842398002	-0.04888863209516587	0.9717599519535134
3328	2532027784.0	-0.9176079998421626	0.3215164199065987	0.23371510510899804	-0.3237478811346305	-0.9456725077564639	0.029846566543543146	0.23061411077057575	-0.04827732184001893	0.971846918042884
3329	2532044451.0	-0.9172209917379208	0.3230672635738579	0.23309482088241376	-0.32507226199306016	-0.945185248720845	0.030868593800655694	0.23029041838083586	-0.04745933846372098	0.9719639573536489
3330	2532061118.0	-0.9166568489452032	0.3250614704115131	0.2325408818589888	-0.32678078508116526	-0.9445509616449068	0.032214893410028686	0.2301185342026766	-0.04645988925500441	0.9720529506702937
3331	2532077785.0	-0.9160819469526684	0.3270047329536864	0.2320813889421057	-0.3283331262601634	-0.9439490936534569	0.034021563618466893	0.23019822907145965	-0.04503346774018326	0.972101209810819
3332	2532094452.0	-0.9154795952109387	0.3292769703497248	0.23124400002967227	-0.3304147011902298	-0.9431884840246147	0.034951521293365706	0.22961540886836784	-0.044409012606180714	0.9722677633294012
3333	2532111119.0	-0.9149911735416856	0.3318579623122637	0.22948081660731742	-0.333041907410796	-0.9422721688110594	0.0347310781905939	0.22775917160234838	-0.04464809888510849	0.9726933262940369
3334	2532127786.0	-0.9145879970007745	0.3344792405406207	0.22727171709097657	-0.33567723735440047	-0.9413430590875677	0.03455484669012204	0.22549853228841368	-0.04468649410090235	0.9732181303185538
3335	2532144453.0	-0.9142943771106937	0.3368014408083258	0.22501240288749405	-0.33818032499557604	-0.9404815165687657	0.03359441588123063	0.22293465358632508	-0.04537958199400089	0.9737765830868983
3336	2532161120.0	-0.914501770119041	0.33835708472755116	0.22181297451640097	-0.3401046690424748	-0.93986060943636	0.03147775286488588	0.2191239981030135	-0.0466531675729196	0.9745810153141521
3337	2532177787.0	-0.9152205710883224	0.3394934139902553	0.21706111608025666	-0.34152088181891266	-0.9394174830695705	0.029296412491389548	0.2138569464347552	-0.047318224401118006	0.9757182954629516
3338	2532194454.0	-0.9163109575211752	0.3401109637174054	0.2114208161129021	-0.34226549986995497	-0.939201191497185	0.02748544140155859	0.2079147823638272	-0.04717684018124195	0.9770085920938036
3339	2532211121.0	-0.9175853193997656	0.34059273019873765	0.20502139829247107	-0.34298668824501266	-0.9390107442251966	0.02487878446309366	0.2009908289170147	-0.04749120303185061	0.9784412462308807
3340	2532227788.0	-0.9187831660394031	0.34129099775174165	0.19838837832955752	-0.34384246043958777	-0.9387566850473706	0.022544371309100752	0.19393260737034773	-0.04750095927971137	0.9798641756213183
3341	2532244455.0	-0.9197015131454496	0.34209490608067195	0.19266603735901916	-0.34476993862815963	-0.9384624173176511	0.02054216883988194	0.18783720647493068	-0.047532794110671045	0.9810493450116191
3342	2532261122.0	-0.9203674135485427	0.34307530531735353	0.18767833907878365	-0.3458519187614765	-0.9381007451835957	0.018800057845338017	0.1825110253298997	-0.04760595306668756	0.9820506091162723
3343	2532277789.0	-0.9209349600402112	0.3441392732204689	0.18288510054955942	-0.34687654590797024	-0.9377410999084395	0.017840724241645525	0.17763856922045607	-0.04700840531009476	0.9829724047782377
3344	2532294456.0	-0.9212883601076715	0.34532190862179	0.17883102906353254	-0.3478523590566615	-0.9373759624649487	0.018028901564624486	0.17385768268567647	-0.04559697817526467	0.983714603811721
3345	2532311123.0	-0.9214332051285385	0.3465868446115642	0.17560867754398912	-0.34892082532799085	-0.9369711707540772	0.01841963159698015	0.17092427018707146	-0.04430106452371336	0.9842877168506592
3346	2532327790.0	-0.9215339113296106	0.34771954946650246	0.17281887972198542	-0.34998325740511294	-0.9365791225635681	0.01820073389079177	0.16818730572090174	-0.043711120974752125	0.9847854426713845
3347	2532344457.0	-0.9214040493088037	0.3490776092386163	0.170761238709468	-0.3513500256004194	-0.9360762464135898	0.017731903756491488	0.16603534993465907	-0.04365871766894562	0.9851528708497881
3348	2532361124.0	-0.9209392848791512	0.3508091819301943	0.1697166799102141	-0.35294263906762124	-0.9354631463907215	0.018444383230541053	0.1652341583761089	-0.04291409579893419	0.9853202795474675
3349	2532377791.0	-0.9207743322550695	0.3522122567639705	0.16769363507736984	-0.35444097849909695	-0.9349153052544177	0.01746324029617556	0.16293011330270962	-0.04335779268217257	0.9856844728374777
3350	2532394458.0	-0.9207759547989721	0.3528548919386416	0.1663281885280156	-0.3553169498977475	-0.9346135879880786	0.0157259741641569	0.16100157197804968	-0.04461912575364647	0.9859450428079535
3351	2532411125.0	-0.9208814894585418	0.3530251318937012	0.16537998253734643	-0.35568502189163487	-0.9344971927276207	0.0142534903144452	0.15957896971269575	-0.04569740731848504	0.9861269184997454
3352	2532427792.0	-0.9211563456325522	0.352697046464187	0.1645471978379504	-0.3553811328200941	-0.9346191512367196	0.013830855977158704	0.1586670644349012	-0.04573658882113327	0.9862722378261581
3353	2532444459.0	-0.9213182517170238	0.3524151874581631	0.1642443749475605	-0.3550724048731324	-0.9347356962991403	0.013883996606596657	0.15841801144660725	-0.045527065719080044	0.9863219656564045
3354	2532461126.0	-0.9213499034948844	0.352385193409835	0.16413113901841067	-0.35498925446245977	-0.934762844612028	0.014179335281209293	0.1584202782037536	-0.04520066148125617	0.9863366137660624
3355	2532477793.0	-0.9211324512297173	0.3523134170926364	0.16550004056809928	-0.354862287045985	-0.9347997121982	0.014908229494324077	0.15996175956779615	-0.0449972689245971	0.9860970952524413
3356	2532494460.0	-0.9209165443719388	0.35190515494769076	0.16755739381862286	-0.3545029935990426	-0.93493202017878	0.015157347186853909	0.16198872130912223	-0.04544094591519228	0.985745796137609
3357	2532511127.0	-0.9207780668450272	0.35132769022833543	0.16951874732889574	-0.3541891673856093	-0.9350679042547668	0.014072957730615065	0.16345575953090186	-0.04708363315868555	0.9854264793300183
3358	2532527794.0	-0.9206403657510243	0.3506353740674829	0.17168620038423782	-0.35373312201676677	-0.9352527983675402	0.013231837890351789	0.16520954977873245	-0.048549331594180935	0.9850628239171686
3359	2532544461.0	-0.9202908597052712	0.3498148672911503	0.17519786575471724	-0.3532594470121063	-0.9354462759703405	0.012166670453450643	0.16814427328825085	-0.050693425562855825	0.984458064096724
3360	2532561128.0	-0.919961780395321	0.348608232544175	0.1792836378878387	-0.3523504688461502	-0.9357963925142576	0.011587012608923114	0.1718123095583357	-0.05251106511705545	0.9837291895255029
3361	2532577795.0	-0.9197942307613585	0.34715388429890537	0.18292827467153278	-0.3512820884729886	-0.9362119122363253	0.010399505029530867	0.174869858398115	-0.05469402163844031	0.9830712571430607
3362	2532594462.0	-0.9197074024339231	0.34603390242866905	0.18546922191628515	-0.35045404376980016	-0.9365320364999985	0.009471420936724123	0.17697530085760793	-0.05628750286832777	0.9826044269731371
3363	2532611129.0	-0.9194352478244412	0.3453251677744329	0.1881205824984815	-0.3498122647489516	-0.9367676607895304	0.009885804475123314	0.1796390951024236	-0.05671752992215683	0.9820961853659302
3364	2532627796.0	-0.9192592183110412	0.3443563811251862	0.1907384919950334	-0.34911892469139283	-0.9370338782460851	0.00913714624085736	0.1818748634982292	-0.0581910113115997	0.9815983599365037
3365	2532644463.0	-0.9190916421933853	0.3432042148853808	0.19360118836199106	-0.3483489404946921	-0.9373315502021464	0.00791079337781972	0.18418351963867793	-0.06017002476774003	0.9810484183835975
3366	2532661130.0	-0.918705183191912	0.34260965639945296	0.19646732481042414	-0.34814523692401766	-0.9374163465433665	0.006744422911344958	0.18648238625520513	-0.06220302705766213	0.9804871763778599
3367	2532677797.0	-0.918316972194456	0.34258152894945804	0.1983225519255399	-0.3485731301790249	-0.9372682887060313	0.004992785120978643	0.18759187481552478	-0.064544953394663	0.9801240929058306
3368	2532694464.0	-0.918074915907675	0.3426323723626346	0.1993527180408345	-0.3489019212696382	-0.9371510725688539	0.003913632251780486	0.1881645506344668	-0.06596153873432467	0.9799199851479353
3369	2532711131.0	-0.9176224376589893	0.3427779935122794	0.2011773075385745	-0.34949766292942186	-0.9369345222347734	0.002254917197949735	0.18926290051578187	-0.06824183620326352	0.9795522478561113
3370	2532727798.0	-0.9173873227267471	0.34256479384759436	0.2026076556214158	-0.3498546347385983	-0.9368039830874997	-0.00017839091174194632	0.18974254834425763	-0.07104688091359586	0.9792599787902476
3371	2532744465.0	-0.9173696011228584	0.34242647331705844	0.20292147571740735	-0.35017607761820735	-0.9366806953826872	-0.002447358031291036	0.189234588803463	-0.07330337829219027	0.9791919552015003
3372	2532761132.0	-0.9172493302220361	0.34244303931591524	0.2034365528397119	-0.3504231419283368	-0.9365852011926706	-0.003432565798008533	0.18936020650680296	-0.07443739470832836	0.9790821142584198
3373	2532777799.0	-0.9171287591779467	0.3426236319363602	0.20367593359908331	-0.3507362396826402	-0.9364657380473552	-0.004001454323680334	0.1893645406669428	-0.07510637990317776	0.9790301846397985
3374	2532794466.0	-0.9168242740684223	0.3430604755963482	0.2043104514275228	-0.35133755103903075	-0.9362378264912592	-0.004545049704826609	0.18972394606060505	-0.07594894555245721	0.9788955929825522
3375	2532811133.0	-0.9164907987474822	0.34351873655012266	0.2050353468312476	-0.3516528939710406	-0.9361240486484035	-0.003465213400898462	0.19074815326234396	-0.07527710927718417	0.9787484349136281
3376	2532827800.0	-0.9162619638055713	0.3436315152267242	0.20586742196409832	-0.35142789756700665	-0.9362139091672339	-0.0013960993662584797	0.19225620014655442	-0.07362674802537855	0.9785788958895527
3377	2532844467.0	-0.9158637840067783	0.3439746839179266	0.20706266193678702	-0.3513369534984266	-0.9362481823098636	0.0012985483899959904	0.1943087086345596	-0.0715594713859677	0.9783268205480881
3378	2532861134.0	-0.9151244514031749	0.3444180093915102	0.2095792767685493	-0.35105626695799175	-0.9363359488863556	0.005872669972661004	0.19825926428179289	-0.06819989464711937	0.9777740222037832
3379	2532877801.0	-0.9141882688925085	0.3447564212284054	0.21307937263165905	-0.35072316573580303	-0.9364217263162504	0.010373596249612968	0.20310851788040674	-0.0652484521247508	0.9769798203953594
3380	2532894468.0	-0.9132189246291887	0.34511346992022846	0.21662845745360385	-0.3507675579089058	-0.936371630902245	0.013049488882434221	0.20734829639457086	-0.06406919479039677	0.9761669028712147
3381	2532911135.0	-0.9125652662505915	0.34507839405480994	0.21942091237970157	-0.35047368870219686	-0.9364504437340856	0.015124812650410283	0.21069605682229287	-0.06309887785680358	0.9755130461724998
3382	2532927802.0	-0.9119163264759976	0.34485492029302756	0.22244931435320686	-0.3501582754019399	-0.9365462297704013	0.016442070136894193	0.21400419545901764	-0.06289867607936565	0.9748056015808495
3383	2532944469.0	-0.9110987235296502	0.34453852084763487	0.22625720681287886	-0.34989337056091063	-0.9366295081557062	0.017314551380995954	0.21788470625577938	-0.06339063104374126	0.9739136936483175
3384	2532961136.0	-0.9102844539459671	0.3446005714057807	0.22941808797717275	-0.3500189769851727	-0.9365699725725145	0.017983387494369424	0.2210631779707907	-0.06393068639025357	0.9731618255373181
3385	2532977803.0	-0.9093500659520322	0.3447031266686704	0.23294250796683239	-0.3502195241980711	-0.9364826462999274	0.01861553248129276	0.2245634485474249	-0.06465297861605365	0.9723123211872615
3386	2532994470.0	-0.9085401902012634	0.3447031996983255	0.23608139890044053	-0.3503335948035413	-0.9364311289277414	0.019055527469587316	0.22764247218188605	-0.06539453259143584	0.9715464270769911
3387	2533011137.0	-0.9076120941475356	0.3450124766171614	0.23917917454414378	-0.35025855137472117	-0.9364034163378788	0.02162380770427373	0.23142867960995475	-0.0641485218009139	0.9707346359354604
3388	2533027804.0	-0.9065566509529739	0.3456648909487763	0.2422206056022046	-0.3503889575816296	-0.9362776567803438	0.02473313200482316	0.23533511641441682	-0.06244944018387721	0.9699058977049956
3389	2533044471.0	-0.9051275476244472	0.34658161208619953	0.24622207190884737	-0.35081033252529614	-0.9360292665937646	0.027952149710362667	0.24015876649592782	-0.061076986203238134	0.9688102851598367
3390	2533061138.0	-0.9036073259765303	0.34721741603381584	0.25086623217233744	-0.3511059847325944	-0.9358355816236463	0.030599863595894575	0.24539435186348577	-0.060430374563891304	0.9675380002374936
3391	2533077805.0	-0.9021628006806598	0.34730040539640394	0.2558998035941449	-0.3509550561551823	-0.93581796314386	0.032791590635258216	0.2508641656896045	-0.06022597669420493	0.9661469878357475
3392	2533094472.0	-0.9012714091882392	0.34742075894252383	0.25886031606958715	-0.35069104406504154	-0.9358367737930914	0.03500463439474495	0.2544123397015502	-0.05923131834037923	0.9652802765700975
3393	2533111139.0	-0.900931687186453	0.34772482064664023	0.2596334803711445	-0.3504764242165855	-0.9358327008509013	0.037194516887084986	0.25590695788064766	-0.05748569495421928	0.9649906858534455
3394	2533127806.0	-0.9006363002115327	0.34783152386474675	0.26051388782022805	-0.3506344411829197	-0.935772386598172	0.03722269652649579	0.2567289298026692	-0.05782102979271567	0.9647522921020123
3395	2533144473.0	-0.9001789582440403	0.34831182000728056	0.26145117933926054	-0.3512777255354207	-0.9355437893289988	0.03690227351532109	0.2574525250941154	-0.05862332548699044	0.9645110175791203
3396	2533161140.0	-0.8993197538958617	0.34899721942009265	0.26348609278239016	-0.35172852530078924	-0.9353159198520198	0.03835589343376705	0.2598288373957339	-0.058181362208305706	0.963900360176905
3397	2533177807.0	-0.8984344721523063	0.3489245679356463	0.2665842177236485	-0.3518713980902398	-0.9352654639770724	0.03827572465377814	0.2626823527655162	-0.059415130923648835	0.9630513089980715
3398	2533194474.0	-0.8977285117649546	0.34862997632132775	0.2693337312229399	-0.3521863751832691	-0.9352114566228291	0.03666454059000658	0.2646663490123935	-0.06194086705557966	0.9623487167803848
3399	2533211141.0	-0.8973136134221162	0.3486196050290903	0.2707261534405314	-0.3522195961189193	-0.9351918709815923	0.036844545861964256	0.26602562898557436	-0.06229394384135649	0.9619510534759653
3400	2533227808.0	-0.89668777452758	0.34898867172188436	0.2723195586486055	-0.352510349698959	-0.9350534056434808	0.03757102540051668	0.2677451929874637	-0.06230598369597762	0.9614730760805437
3401	2533244475.0	-0.8959159302480213	0.3497847458717277	0.2738343979182928	-0.35301048064335566	-0.9348013035512627	0.03911679223565302	0.2696632093626603	-0.061621055121696786	0.9609810607300849
3402	2533261142.0	-0.8951081013974227	0.3504433005043033	0.2756283366135496	-0.353318154051646	-0.9346092942535601	0.04088702865701724	0.2719333904290514	-0.0607861845036603	0.960394330961636
3403	2533277809.0	-0.8942505562495991	0.35114491608390064	0.2775125052240223	-0.353666044470475	-0.9343977410825444	0.0426754080056263	0.2742923105664661	-0.05998424266646206	0.959773733228744
3404	2533294476.0	-0.8936340530781435	0.35179482985034255	0.2786728850636501	-0.35410278140854057	-0.9341809684307397	0.04378513926597252	0.2757342912621953	-0.05955095223733911	0.9593874528623778
3405	2533311143.0	-0.8933406205834393	0.35184995425247556	0.27954274325785516	-0.35416722003986817	-0.9341484259750071	0.04395791734885489	0.2766010048152896	-0.059735483097971595	0.9591264547463096
3406	2533327810.0	-0.8934760606379872	0.3508468209711025	0.2803694656721646	-0.3537510116725592	-0.9343982508201351	0.041953910484162735	0.27669613442812113	-0.061696167455874626	0.9589748860704289
3407	2533344477.0	-0.8940876380184403	0.34916563913413556	0.2805185412600341	-0.3528060788080044	-0.9348763531360854	0.03916727081497935	0.2759260159874872	-0.06394967392430054	0.9590491504121407
3408	2533361144.0	-0.894909256773086	0.3472623332512297	0.280261117614904	-0.351733052558568	-0.9354113462355387	0.03590923379367503	0.2746293536380895	-0.06644159268657732	0.9592519131498234
3409	2533377811.0	-0.8955369355676898	0.3456686206135006	0.2802263402273082	-0.35117988810375783	-0.9357608538476008	0.032004852723314006	0.2732879126955004	-0.0697483270736198	0.9594002749869148
3410	2533394478.0	-0.8960078558890194	0.3444508741868971	0.2802204800813906	-0.3509918001564758	-0.9359541654686696	0.02818787620171699	0.2719828641809613	-0.07309853222691354	0.9595217174083097
3411	2533411145.0	-0.896361542576299	0.34347195814626214	0.2802909184354903	-0.3509281410048831	-0.9360734303516158	0.02481880014456936	0.2708974434008103	-0.07611535296463891	0.9595941997542365
3412	2533427812.0	-0.896498606578439	0.3425187230373238	0.2810181004344717	-0.3507946829845872	-0.9361943764747992	0.021981352249246078	0.270616590017428	-0.07887340379268237	0.9594507008603914
3413	2533444479.0	-0.8965928417138608	0.3415579406520068	0.281885525284688	-0.35058450469574415	-0.9363293680225231	0.01943758333185304	0.2705767566785883	-0.08139709918727593	0.9592511303038392
3414	2533461146.0	-0.8966178870404105	0.340775969386973	0.2827509563689559	-0.35042343386482544	-0.9364299343969889	0.017389507285600653	0.27070238572567956	-0.0834908177802839	0.9590357145116157
3415	2533477813.0	-0.896357186572364	0.340774908082234	0.28357760155135964	-0.3507152994543783	-0.9363346311807157	0.016620384481094402	0.2711873389535405	-0.0845572023734147	0.958805249630017
3416	2533494480.0	-0.8957987809783391	0.34112997260345634	0.284912066766725	-0.351283852813872	-0.9361260716776605	0.016359482803362746	0.27229432375641544	-0.08543020377428984	0.9584140449373224
3417	2533511147.0	-0.8951929404297747	0.34127428446279107	0.28663820779704835	-0.3516346830284859	-0.9359966869953407	0.016225030822857645	0.27382959864877676	-0.08626740229169072	0.9579015013067332
3418	2533527814.0	-0.8945855990580052	0.34095123301725305	0.28890978291162966	-0.3517289896738329	-0.935974015216038	0.015471285124158018	0.275687003286435	-0.08777755717940179	0.9572313078219716
3419	2533544481.0	-0.8937978272612717	0.34042298356317946	0.2919548530937163	-0.3517211945162245	-0.9359908018273803	0.014608909015325272	0.2782402654381826	-0.08962929853837545	0.9563205234294664
3420	2533561148.0	-0.8929898360594981	0.3396696839545766	0.2952857234893501	-0.3516613828780595	-0.9360335155978057	0.013248753522634063	0.2808975337854031	-0.09200958363024346	0.9553171264210998
3421	2533577815.0	-0.8920390902827777	0.33865964860101117	0.2992923383865917	-0.35150636422184944	-0.9361138395480589	0.011582543681241217	0.2840942402073842	-0.09487107997715132	0.954091159619959
3422	2533594482.0	-0.8910238016414548	0.33769200731552906	0.30338209094081103	-0.351403210671306	-0.9361709843822577	0.00998356302393022	0.28738888015771874	-0.09771384853726578	0.952816685079417
3423	2533611149.0	-0.8901008773227046	0.3368978379694987	0.3069532129833953	-0.35134020306643976	-0.9362072140560338	0.008724337148069486	0.2903110226956344	-0.10007946403192647	0.9516846173919686
