sep=,
DeviceTag:,Xsens_DOT_01
FirmwareVersion:,1.4.0
AppVersion:,2020.2.2
Measurement Mode:,Sensor fusion Mode - Orientation(Quaternion)
StartTime: ,2020-11-04_15:24:03_784 CET
© Xsens Technologies B. V. 2005-2020

PacketCounter,SampleTimeFine,Quat_W,Quat_X,Quat_Y,Quat_Z
1,2476576675,0.802696,0.003694,-0.003872,0.596365
2,2476593342,0.802395,0.003688,-0.003869,0.596770
3,2476610009,0.802341,0.003686,-0.003867,0.596843
4,2476626676,0.802456,0.003689,-0.003868,0.596687
5,2476643343,0.802297,0.003693,-0.003864,0.596902
6,2476660010,0.802244,0.003698,-0.003861,0.596973
7,2476676677,0.802494,0.003710,-0.003856,0.596637
8,2476693344,0.802447,0.003706,-0.003861,0.596699
9,2476710011,0.802359,0.003712,-0.003865,0.596818
10,2476726678,0.802304,0.003708,-0.003867,0.596892
11,2476743345,0.802026,0.003716,-0.003859,0.597265
12,2476760012,0.802016,0.003713,-0.003860,0.597279
13,2476776679,0.801954,0.003716,-0.003856,0.597362
14,2476793346,0.801927,0.003720,-0.003853,0.597398
15,2476810013,0.801894,0.003719,-0.003855,0.597443
16,2476826680,0.802040,0.003723,-0.003862,0.597247
17,2476843347,0.802139,0.003717,-0.003860,0.597114
18,2476860014,0.802349,0.003718,-0.003856,0.596832
19,2476876681,0.802449,0.003718,-0.003858,0.596697
20,2476893348,0.802289,0.003725,-0.003862,0.596912
21,2476910015,0.802378,0.003731,-0.003855,0.596792
22,2476926682,0.802381,0.003735,-0.003854,0.596788
23,2476943349,0.802348,0.003735,-0.003853,0.596832
24,2476960016,0.802261,0.003746,-0.003859,0.596949
25,2476976683,0.802160,0.003737,-0.003846,0.597085
26,2476993350,0.802142,0.003735,-0.003854,0.597110
27,2477010017,0.802247,0.003739,-0.003853,0.596968
28,2477026684,0.802142,0.003734,-0.003860,0.597110
29,2477043351,0.802164,0.003734,-0.003866,0.597080
30,2477060018,0.802135,0.003734,-0.003866,0.597119
31,2477076685,0.801897,0.003748,-0.003860,0.597439
32,2477093352,0.801869,0.003744,-0.003862,0.597476
33,2477110019,0.801891,0.003746,-0.003860,0.597446
34,2477126686,0.801915,0.003751,-0.003859,0.597414
35,2477143353,0.801852,0.003740,-0.003866,0.597499
36,2477160020,0.801867,0.003752,-0.003866,0.597478
37,2477176687,0.801771,0.003743,-0.003866,0.597607
38,2477193354,0.801772,0.003747,-0.003858,0.597607
39,2477210021,0.801800,0.003746,-0.003858,0.597569
40,2477226688,0.801809,0.003738,-0.003859,0.597556
41,2477243355,0.801835,0.003719,-0.003860,0.597522
42,2477260022,0.801884,0.003717,-0.003863,0.597456
43,2477276689,0.801979,0.003727,-0.003863,0.597329
44,2477293356,0.802501,0.003728,-0.003856,0.596627
45,2477310023,0.802764,0.003737,-0.003862,0.596273
46,2477326690,0.802730,0.003740,-0.003843,0.596318
47,2477343357,0.802773,0.003740,-0.003844,0.596260
48,2477360024,0.802769,0.003738,-0.003847,0.596267
49,2477376691,0.802809,0.003748,-0.003850,0.596212
50,2477393358,0.802787,0.003739,-0.003854,0.596242
51,2477410025,0.802956,0.003737,-0.003871,0.596014
52,2477426692,0.803029,0.003731,-0.003867,0.595915
53,2477443359,0.802984,0.003735,-0.003871,0.595976
54,2477460026,0.802944,0.003732,-0.003874,0.596030
55,2477476693,0.802957,0.003727,-0.003874,0.596014
56,2477493360,0.802942,0.003729,-0.003869,0.596033
57,2477510027,0.802959,0.003726,-0.003859,0.596011
58,2477526694,0.802775,0.003724,-0.003862,0.596259
59,2477543361,0.802761,0.003733,-0.003877,0.596276
60,2477560028,0.802689,0.003719,-0.003889,0.596374
61,2477576695,0.802724,0.003709,-0.003888,0.596326
62,2477593362,0.802689,0.003706,-0.003885,0.596373
63,2477610029,0.802743,0.003707,-0.003883,0.596301
64,2477626696,0.802980,0.003709,-0.003881,0.595981
65,2477643363,0.802879,0.003711,-0.003876,0.596118
66,2477660030,0.802835,0.003713,-0.003868,0.596177
67,2477676697,0.802778,0.003717,-0.003862,0.596254
68,2477693364,0.802817,0.003710,-0.003856,0.596202
69,2477710031,0.802892,0.003695,-0.003864,0.596101
70,2477726698,0.802920,0.003701,-0.003858,0.596064
71,2477743365,0.803028,0.003709,-0.003851,0.595918
72,2477760032,0.803092,0.003700,-0.003864,0.595831
73,2477776699,0.803068,0.003708,-0.003855,0.595863
74,2477793366,0.803081,0.003717,-0.003855,0.595846
75,2477810033,0.803121,0.003716,-0.003840,0.595793
76,2477826700,0.803136,0.003721,-0.003848,0.595773
77,2477843367,0.803163,0.003726,-0.003848,0.595736
78,2477860034,0.802954,0.003729,-0.003845,0.596017
79,2477876701,0.802835,0.003732,-0.003842,0.596178
80,2477893368,0.802945,0.003739,-0.003850,0.596029
81,2477910035,0.803097,0.003740,-0.003860,0.595824
82,2477926702,0.803198,0.003739,-0.003863,0.595689
83,2477943369,0.803186,0.003748,-0.003868,0.595704
84,2477960036,0.803229,0.003750,-0.003868,0.595647
85,2477976703,0.803531,0.003747,-0.003864,0.595240
86,2477993370,0.803557,0.003750,-0.003860,0.595203
87,2478010037,0.803515,0.003755,-0.003861,0.595260
88,2478026704,0.803451,0.003761,-0.003864,0.595346
89,2478043371,0.803413,0.003758,-0.003857,0.595399
90,2478060038,0.803441,0.003765,-0.003850,0.595360
91,2478076705,0.803512,0.003773,-0.003853,0.595264
92,2478093372,0.803534,0.003781,-0.003856,0.595234
93,2478110039,0.803384,0.003781,-0.003855,0.595437
94,2478126706,0.803476,0.003788,-0.003857,0.595313
95,2478143373,0.803453,0.003799,-0.003856,0.595344
96,2478160040,0.803351,0.003798,-0.003853,0.595482
97,2478176707,0.803348,0.003800,-0.003861,0.595485
98,2478193374,0.803257,0.003797,-0.003866,0.595608
99,2478210041,0.803250,0.003799,-0.003869,0.595618
100,2478226708,0.803282,0.003789,-0.003879,0.595574
101,2478243375,0.803041,0.003788,-0.003876,0.595900
102,2478260042,0.802994,0.003792,-0.003872,0.595963
103,2478276709,0.803029,0.003794,-0.003876,0.595915
104,2478293376,0.803037,0.003804,-0.003879,0.595905
105,2478310043,0.803054,0.003802,-0.003876,0.595881
106,2478326710,0.803045,0.003800,-0.003874,0.595894
107,2478343377,0.803119,0.003800,-0.003865,0.595795
108,2478360044,0.803099,0.003801,-0.003865,0.595822
109,2478376711,0.803068,0.003805,-0.003877,0.595864
110,2478393378,0.802835,0.003803,-0.003883,0.596177
111,2478410045,0.802841,0.003810,-0.003879,0.596168
112,2478426712,0.802846,0.003812,-0.003873,0.596162
113,2478443379,0.802847,0.003820,-0.003876,0.596160
114,2478460046,0.802925,0.003822,-0.003873,0.596055
115,2478476713,0.803028,0.003822,-0.003877,0.595917
116,2478493380,0.803205,0.003723,-0.003883,0.595678
117,2478510047,0.803187,0.003718,-0.003891,0.595703
118,2478526714,0.803117,0.003703,-0.003907,0.595797
119,2478543381,0.803027,0.003703,-0.003907,0.595918
120,2478560048,0.803012,0.003702,-0.003903,0.595939
121,2478576715,0.803089,0.003708,-0.003891,0.595836
122,2478593382,0.803103,0.003705,-0.003899,0.595816
123,2478610049,0.803231,0.003712,-0.003888,0.595644
124,2478626716,0.803234,0.003718,-0.003887,0.595640
125,2478643383,0.803396,0.003716,-0.003889,0.595422
126,2478660050,0.803390,0.003721,-0.003887,0.595429
127,2478676717,0.803376,0.003723,-0.003888,0.595448
128,2478693384,0.803396,0.003717,-0.003881,0.595421
129,2478710051,0.803488,0.003717,-0.003872,0.595298
130,2478726718,0.803530,0.003716,-0.003875,0.595241
131,2478743385,0.803559,0.003705,-0.003886,0.595201
132,2478760052,0.803559,0.003700,-0.003882,0.595202
133,2478776719,0.803564,0.003701,-0.003880,0.595195
134,2478793386,0.803631,0.003697,-0.003881,0.595104
135,2478810053,0.803672,0.003702,-0.003885,0.595049
136,2478826720,0.803656,0.003701,-0.003889,0.595070
137,2478843387,0.803558,0.003703,-0.003885,0.595203
138,2478860054,0.803549,0.003707,-0.003893,0.595215
139,2478876721,0.803531,0.003703,-0.003894,0.595239
140,2478893388,0.803444,0.003701,-0.003885,0.595357
141,2478910055,0.803538,0.003699,-0.003885,0.595230
142,2478926722,0.803608,0.003710,-0.003875,0.595135
143,2478943389,0.803675,0.003713,-0.003863,0.595045
144,2478960056,0.803680,0.003715,-0.003864,0.595039
145,2478976723,0.803713,0.003716,-0.003856,0.594993
146,2478993390,0.803695,0.003714,-0.003855,0.595018
147,2479010057,0.803717,0.003707,-0.003859,0.594988
148,2479026724,0.803725,0.003699,-0.003859,0.594977
149,2479043391,0.803696,0.003687,-0.003864,0.595016
150,2479060058,0.803616,0.003683,-0.003866,0.595124
151,2479076725,0.803604,0.003680,-0.003854,0.595141
152,2479093392,0.803532,0.003676,-0.003865,0.595238
153,2479110059,0.803485,0.003679,-0.003856,0.595302
154,2479126726,0.803448,0.003690,-0.003856,0.595352
155,2479143393,0.803340,0.003688,-0.003851,0.595497
156,2479160060,0.803328,0.003691,-0.003841,0.595513
157,2479176727,0.803294,0.003687,-0.003844,0.595559
158,2479193394,0.803292,0.003693,-0.003846,0.595561
159,2479210061,0.803230,0.003695,-0.003845,0.595645
160,2479226728,0.803268,0.003692,-0.003846,0.595594
161,2479243395,0.803276,0.003689,-0.003848,0.595584
162,2479260062,0.803401,0.003678,-0.003855,0.595415
163,2479276729,0.803487,0.003679,-0.003854,0.595299
164,2479293396,0.803449,0.003675,-0.003854,0.595350
165,2479310063,0.803449,0.003678,-0.003860,0.595350
166,2479326730,0.803436,0.003682,-0.003860,0.595368
167,2479343397,0.803449,0.003676,-0.003848,0.595350
168,2479360064,0.803510,0.003673,-0.003851,0.595268
169,2479376731,0.803488,0.003673,-0.003843,0.595297
170,2479393398,0.803498,0.003675,-0.003852,0.595284
171,2479410065,0.803445,0.003676,-0.003853,0.595356
172,2479426732,0.803441,0.003674,-0.003846,0.595361
173,2479443399,0.803445,0.003669,-0.003850,0.595356
174,2479460066,0.803441,0.003667,-0.003852,0.595361
175,2479476733,0.803516,0.003662,-0.003843,0.595261
176,2479493400,0.803568,0.003653,-0.003838,0.595190
177,2479510067,0.803563,0.003646,-0.003835,0.595196
178,2479526734,0.803577,0.003640,-0.003840,0.595177
179,2479543401,0.803612,0.003641,-0.003834,0.595130
180,2479560068,0.803659,0.003647,-0.003837,0.595067
181,2479576735,0.803629,0.003640,-0.003831,0.595107
182,2479593402,0.803633,0.003637,-0.003826,0.595103
183,2479610069,0.803638,0.003649,-0.003820,0.595096
184,2479626736,0.803510,0.003652,-0.003821,0.595268
185,2479643403,0.803529,0.003650,-0.003827,0.595242
186,2479660070,0.803543,0.003653,-0.003827,0.595224
187,2479676737,0.803553,0.003655,-0.003827,0.595211
188,2479693404,0.803567,0.003652,-0.003837,0.595191
189,2479710071,0.803742,0.003650,-0.003831,0.594955
190,2479726738,0.803755,0.003651,-0.003836,0.594937
191,2479743405,0.803776,0.003657,-0.003841,0.594909
192,2479760072,0.803812,0.003664,-0.003842,0.594861
193,2479776739,0.803821,0.003663,-0.003835,0.594848
194,2479793406,0.803681,0.003669,-0.003829,0.595038
195,2479810073,0.803745,0.003673,-0.003826,0.594951
196,2479826740,0.803730,0.003667,-0.003829,0.594971
197,2479843407,0.803663,0.003680,-0.003829,0.595062
198,2479860074,0.803676,0.003669,-0.003829,0.595044
199,2479876741,0.803706,0.003674,-0.003832,0.595003
200,2479893408,0.803752,0.003684,-0.003835,0.594941
201,2479910075,0.803687,0.003688,-0.003842,0.595029
202,2479926742,0.803660,0.003686,-0.003838,0.595065
203,2479943409,0.803584,0.003688,-0.003832,0.595168
204,2479960076,0.803646,0.003683,-0.003834,0.595084
205,2479976743,0.803746,0.003682,-0.003829,0.594949
206,2479993410,0.803745,0.003683,-0.003824,0.594950
207,2480010077,0.803777,0.003679,-0.003831,0.594907
208,2480026744,0.803757,0.003678,-0.003828,0.594934
209,2480043411,0.803615,0.003669,-0.003825,0.595127
210,2480060078,0.803636,0.003663,-0.003819,0.595098
211,2480076745,0.803698,0.003662,-0.003819,0.595014
212,2480093412,0.803657,0.003665,-0.003815,0.595070
213,2480110079,0.803569,0.003665,-0.003815,0.595188
214,2480126746,0.803517,0.003662,-0.003816,0.595258
215,2480143413,0.803509,0.003663,-0.003818,0.595270
216,2480160080,0.803491,0.003662,-0.003809,0.595293
217,2480176747,0.803516,0.003664,-0.003811,0.595260
218,2480193414,0.803545,0.003660,-0.003819,0.595221
219,2480210081,0.803562,0.003661,-0.003816,0.595198
220,2480226748,0.803560,0.003658,-0.003817,0.595200
221,2480243415,0.803611,0.003654,-0.003817,0.595132
222,2480260082,0.803555,0.003653,-0.003821,0.595207
223,2480276749,0.803527,0.003654,-0.003821,0.595245
224,2480293416,0.803550,0.003657,-0.003825,0.595214
225,2480310083,0.803549,0.003653,-0.003828,0.595216
226,2480326750,0.803553,0.003654,-0.003830,0.595210
227,2480343417,0.803545,0.003663,-0.003836,0.595221
228,2480360084,0.803456,0.003660,-0.003836,0.595342
229,2480376751,0.803476,0.003652,-0.003831,0.595314
230,2480393418,0.803550,0.003645,-0.003838,0.595214
231,2480410085,0.803523,0.003650,-0.003845,0.595250
232,2480426752,0.803527,0.003649,-0.003846,0.595245
233,2480443419,0.803514,0.003655,-0.003843,0.595263
234,2480460086,0.803485,0.003653,-0.003848,0.595302
235,2480476753,0.803443,0.003647,-0.003857,0.595359
236,2480493420,0.803467,0.003710,-0.003865,0.595326
237,2480510087,0.803252,0.003711,-0.003854,0.595616
238,2480526754,0.803177,0.003714,-0.003848,0.595717
239,2480543421,0.803173,0.003713,-0.003850,0.595722
240,2480560088,0.803217,0.003713,-0.003851,0.595664
241,2480576755,0.803201,0.003720,-0.003846,0.595685
242,2480593422,0.803128,0.003719,-0.003835,0.595784
243,2480610089,0.803204,0.003718,-0.003835,0.595680
244,2480626756,0.803472,0.003718,-0.003844,0.595320
245,2480643423,0.803437,0.003704,-0.003848,0.595366
246,2480660090,0.803542,0.003717,-0.003849,0.595224
247,2480676757,0.803596,0.003724,-0.003840,0.595151
248,2480693424,0.803634,0.003724,-0.003844,0.595100
249,2480710091,0.803645,0.003728,-0.003847,0.595085
250,2480726758,0.803599,0.003714,-0.003849,0.595147
251,2480743425,0.803573,0.003713,-0.003852,0.595182
252,2480760092,0.803601,0.003708,-0.003853,0.595145
253,2480776759,0.803585,0.003718,-0.003848,0.595166
254,2480793426,0.803633,0.003714,-0.003849,0.595102
255,2480810093,0.803477,0.003723,-0.003845,0.595312
256,2480826760,0.803432,0.003720,-0.003851,0.595373
257,2480843427,0.803315,0.003729,-0.003843,0.595531
258,2480860094,0.803308,0.003726,-0.003848,0.595540
259,2480876761,0.803285,0.003726,-0.003856,0.595572
260,2480893428,0.803269,0.003731,-0.003853,0.595593
261,2480910095,0.803272,0.003726,-0.003853,0.595589
262,2480926762,0.803350,0.003733,-0.003857,0.595484
263,2480943429,0.803300,0.003744,-0.003861,0.595551
264,2480960096,0.803407,0.003741,-0.003858,0.595406
265,2480976763,0.803433,0.003741,-0.003853,0.595372
266,2480993430,0.803501,0.003745,-0.003856,0.595280
267,2481010097,0.803458,0.003750,-0.003848,0.595338
268,2481026764,0.803547,0.003737,-0.003853,0.595218
269,2481043431,0.803524,0.003742,-0.003854,0.595248
270,2481060098,0.803443,0.003761,-0.003850,0.595358
271,2481076765,0.803429,0.003771,-0.003837,0.595377
272,2481093432,0.803465,0.003765,-0.003839,0.595328
273,2481110099,0.803417,0.003770,-0.003837,0.595393
274,2481126766,0.803393,0.003765,-0.003840,0.595426
275,2481143433,0.803428,0.003762,-0.003843,0.595378
276,2481160100,0.803458,0.003755,-0.003847,0.595338
277,2481176767,0.803492,0.003764,-0.003842,0.595292
278,2481193434,0.803431,0.003775,-0.003840,0.595374
279,2481210101,0.803427,0.003762,-0.003837,0.595380
280,2481226768,0.803512,0.003762,-0.003831,0.595265
281,2481243435,0.803552,0.003768,-0.003832,0.595210
282,2481260102,0.803497,0.003759,-0.003823,0.595285
283,2481276769,0.803472,0.003781,-0.003813,0.595319
284,2481293436,0.803405,0.003777,-0.003815,0.595409
285,2481310103,0.803346,0.003770,-0.003822,0.595488
286,2481326770,0.803361,0.003767,-0.003825,0.595469
287,2481343437,0.803406,0.003766,-0.003826,0.595408
288,2481360104,0.803422,0.003776,-0.003830,0.595386
289,2481376771,0.803441,0.003773,-0.003828,0.595361
290,2481393438,0.803432,0.003781,-0.003826,0.595373
291,2481410105,0.803418,0.003789,-0.003825,0.595391
292,2481426772,0.803424,0.003789,-0.003832,0.595383
293,2481443439,0.803371,0.003793,-0.003825,0.595455
294,2481460106,0.803364,0.003801,-0.003824,0.595465
295,2481476773,0.803380,0.003805,-0.003820,0.595443
296,2481493440,0.803410,0.003798,-0.003814,0.595402
297,2481510107,0.803221,0.003800,-0.003802,0.595658
298,2481526774,0.803313,0.003802,-0.003800,0.595533
299,2481543441,0.803309,0.003796,-0.003799,0.595538
300,2481560108,0.803339,0.003802,-0.003808,0.595498
301,2481576775,0.803357,0.003801,-0.003806,0.595473
302,2481593442,0.803539,0.003799,-0.003808,0.595228
303,2481610109,0.803577,0.003805,-0.003799,0.595177
304,2481626776,0.803746,0.003806,-0.003802,0.594949
305,2481643443,0.803700,0.003798,-0.003798,0.595011
306,2481660110,0.803597,0.003796,-0.003799,0.595150
307,2481676777,0.803676,0.003795,-0.003791,0.595043
308,2481693444,0.803650,0.003801,-0.003796,0.595079
309,2481710111,0.803639,0.003806,-0.003789,0.595094
310,2481726778,0.803682,0.003805,-0.003796,0.595036
311,2481743445,0.803701,0.003807,-0.003790,0.595010
312,2481760112,0.803787,0.003807,-0.003789,0.594894
313,2481776779,0.803726,0.003803,-0.003789,0.594976
314,2481793446,0.803754,0.003804,-0.003790,0.594938
315,2481810113,0.803816,0.003803,-0.003784,0.594853
316,2481826780,0.803833,0.003801,-0.003780,0.594832
317,2481843447,0.803804,0.003799,-0.003777,0.594870
318,2481860114,0.803840,0.003794,-0.003767,0.594822
319,2481876781,0.803857,0.003777,-0.003775,0.594799
320,2481893448,0.803804,0.003775,-0.003784,0.594871
321,2481910115,0.803958,0.003778,-0.003786,0.594663
322,2481926782,0.803972,0.003781,-0.003791,0.594643
323,2481943449,0.803976,0.003768,-0.003797,0.594638
324,2481960116,0.803979,0.003777,-0.003795,0.594634
325,2481976783,0.803982,0.003777,-0.003796,0.594631
326,2481993450,0.803953,0.003785,-0.003790,0.594669
327,2482010117,0.803963,0.003794,-0.003787,0.594656
328,2482026784,0.804004,0.003786,-0.003787,0.594600
329,2482043451,0.804242,0.003783,-0.003784,0.594278
330,2482060118,0.804294,0.003785,-0.003788,0.594208
331,2482076785,0.804275,0.003790,-0.003784,0.594234
332,2482093452,0.804254,0.003781,-0.003785,0.594262
333,2482110119,0.804240,0.003778,-0.003789,0.594281
334,2482126786,0.804144,0.003781,-0.003792,0.594411
335,2482143453,0.804146,0.003778,-0.003793,0.594408
336,2482160120,0.804084,0.003780,-0.003798,0.594492
337,2482176787,0.804157,0.003773,-0.003807,0.594393
338,2482193454,0.804105,0.003767,-0.003820,0.594463
339,2482210121,0.804061,0.003768,-0.003824,0.594523
340,2482226788,0.804056,0.003765,-0.003840,0.594529
341,2482243455,0.804029,0.003773,-0.003837,0.594567
342,2482260122,0.804001,0.003771,-0.003837,0.594603
343,2482276789,0.803980,0.003769,-0.003834,0.594632
344,2482293456,0.803834,0.003772,-0.003832,0.594830
345,2482310123,0.803912,0.003788,-0.003826,0.594725
346,2482326790,0.803934,0.003788,-0.003820,0.594694
347,2482343457,0.804007,0.003789,-0.003824,0.594596
348,2482360124,0.803975,0.003780,-0.003819,0.594639
349,2482376791,0.804085,0.003779,-0.003819,0.594490
350,2482393458,0.804098,0.003772,-0.003804,0.594473
351,2482410125,0.804094,0.003774,-0.003810,0.594478
352,2482426792,0.804025,0.003782,-0.003813,0.594571
353,2482443459,0.803975,0.003779,-0.003806,0.594640
354,2482460126,0.804005,0.003780,-0.003813,0.594598
355,2482476793,0.804032,0.003775,-0.003814,0.594562
356,2482493460,0.804032,0.003729,-0.003849,0.594562
357,2482510127,0.804039,0.003727,-0.003851,0.594553
358,2482526794,0.804057,0.003725,-0.003845,0.594529
359,2482543461,0.803955,0.003722,-0.003852,0.594666
360,2482560128,0.803902,0.003716,-0.003855,0.594738
361,2482576795,0.803876,0.003710,-0.003850,0.594773
362,2482593462,0.803851,0.003713,-0.003854,0.594807
363,2482610129,0.803904,0.003717,-0.003847,0.594735
364,2482626796,0.803873,0.003712,-0.003856,0.594777
365,2482643463,0.803922,0.003713,-0.003852,0.594712
366,2482660130,0.803952,0.003707,-0.003849,0.594671
367,2482676797,0.803850,0.003708,-0.003843,0.594809
368,2482693464,0.803962,0.003718,-0.003841,0.594657
369,2482710131,0.803960,0.003722,-0.003846,0.594660
370,2482726798,0.803971,0.003729,-0.003847,0.594646
371,2482743465,0.803959,0.003715,-0.003842,0.594661
372,2482760132,0.804022,0.003707,-0.003828,0.594576
373,2482776799,0.804016,0.003698,-0.003827,0.594584
374,2482793466,0.804097,0.003692,-0.003828,0.594475
375,2482810133,0.804090,0.003694,-0.003835,0.594485
376,2482826800,0.804051,0.003697,-0.003827,0.594537
377,2482843467,0.804079,0.003683,-0.003820,0.594500
378,2482860134,0.804109,0.003689,-0.003811,0.594459
379,2482876801,0.804191,0.003696,-0.003801,0.594348
380,2482893468,0.804164,0.003694,-0.003802,0.594384
381,2482910135,0.804176,0.003695,-0.003801,0.594368
382,2482926802,0.804177,0.003686,-0.003803,0.594367
383,2482943469,0.804187,0.003685,-0.003797,0.594353
384,2482960136,0.804206,0.003683,-0.003800,0.594327
385,2482976803,0.804217,0.003685,-0.003799,0.594312
386,2482993470,0.804295,0.003688,-0.003797,0.594208
387,2483010137,0.804302,0.003679,-0.003799,0.594198
388,2483026804,0.804247,0.003661,-0.003813,0.594272
389,2483043471,0.804265,0.003655,-0.003824,0.594247
390,2483060138,0.804362,0.003665,-0.003821,0.594117
391,2483076805,0.804362,0.003662,-0.003823,0.594117
392,2483093472,0.804385,0.003660,-0.003815,0.594085
393,2483110139,0.804291,0.003661,-0.003812,0.594213
394,2483126806,0.804252,0.003659,-0.003814,0.594265
395,2483143473,0.804275,0.003656,-0.003808,0.594233
396,2483160140,0.804222,0.003660,-0.003799,0.594306
397,2483176807,0.804377,0.003648,-0.003803,0.594096
398,2483193474,0.804483,0.003654,-0.003803,0.593953
399,2483210141,0.804486,0.003646,-0.003802,0.593949
400,2483226808,0.804501,0.003640,-0.003804,0.593929
401,2483243475,0.804500,0.003637,-0.003795,0.593930
402,2483260142,0.804485,0.003633,-0.003798,0.593950
403,2483276809,0.804520,0.003641,-0.003797,0.593903
404,2483293476,0.804512,0.003641,-0.003793,0.593914
405,2483310143,0.804512,0.003636,-0.003794,0.593913
406,2483326810,0.804506,0.003643,-0.003800,0.593922
407,2483343477,0.804511,0.003643,-0.003803,0.593914
408,2483360144,0.804548,0.003653,-0.003803,0.593865
409,2483376811,0.804548,0.003665,-0.003797,0.593864
410,2483393478,0.804542,0.003658,-0.003803,0.593873
411,2483410145,0.804497,0.003647,-0.003806,0.593934
412,2483426812,0.804425,0.003654,-0.003808,0.594031
413,2483443479,0.804484,0.003656,-0.003806,0.593951
414,2483460146,0.804416,0.003659,-0.003801,0.594043
415,2483476813,0.804418,0.003659,-0.003807,0.594041
416,2483493480,0.804393,0.003660,-0.003803,0.594074
417,2483510147,0.804408,0.003664,-0.003806,0.594054
418,2483526814,0.804435,0.003662,-0.003817,0.594018
419,2483543481,0.804429,0.003664,-0.003810,0.594025
420,2483560148,0.804425,0.003670,-0.003816,0.594031
421,2483576815,0.804412,0.003662,-0.003827,0.594049
422,2483593482,0.804399,0.003669,-0.003825,0.594066
423,2483610149,0.804383,0.003675,-0.003820,0.594088
424,2483626816,0.804370,0.003682,-0.003814,0.594105
425,2483643483,0.804379,0.003678,-0.003818,0.594094
426,2483660150,0.804350,0.003677,-0.003826,0.594132
427,2483676817,0.804368,0.003683,-0.003829,0.594108
428,2483693484,0.804402,0.003680,-0.003828,0.594063
429,2483710151,0.804388,0.003673,-0.003817,0.594081
430,2483726818,0.804388,0.003661,-0.003813,0.594081
431,2483743485,0.804338,0.003663,-0.003809,0.594150
432,2483760152,0.804358,0.003655,-0.003811,0.594121
433,2483776819,0.804389,0.003651,-0.003815,0.594081
434,2483793486,0.804286,0.003654,-0.003816,0.594220
435,2483810153,0.804342,0.003654,-0.003818,0.594143
436,2483826820,0.804315,0.003643,-0.003823,0.594180
437,2483843487,0.804312,0.003639,-0.003826,0.594185
438,2483860154,0.804356,0.003630,-0.003828,0.594125
439,2483876821,0.804366,0.003624,-0.003831,0.594110
440,2483893488,0.804354,0.003626,-0.003832,0.594127
441,2483910155,0.804347,0.003626,-0.003835,0.594136
442,2483926822,0.804334,0.003631,-0.003837,0.594155
443,2483943489,0.804385,0.003639,-0.003826,0.594086
444,2483960156,0.804390,0.003635,-0.003827,0.594079
445,2483976823,0.804346,0.003635,-0.003829,0.594139
446,2483993490,0.804338,0.003632,-0.003829,0.594149
447,2484010157,0.804347,0.003636,-0.003831,0.594137
448,2484026824,0.804395,0.003639,-0.003831,0.594072
449,2484043491,0.804452,0.003632,-0.003833,0.593994
450,2484060158,0.804492,0.003632,-0.003830,0.593940
451,2484076825,0.804492,0.003625,-0.003835,0.593940
452,2484093492,0.804448,0.003620,-0.003843,0.594001
453,2484110159,0.804446,0.003619,-0.003845,0.594003
454,2484126826,0.804439,0.003606,-0.003843,0.594012
455,2484143493,0.804459,0.003606,-0.003838,0.593986
456,2484160160,0.804501,0.003599,-0.003845,0.593929
457,2484176827,0.804507,0.003609,-0.003843,0.593921
458,2484193494,0.804538,0.003616,-0.003839,0.593878
459,2484210161,0.804553,0.003619,-0.003836,0.593858
460,2484226828,0.804567,0.003622,-0.003835,0.593839
461,2484243495,0.804561,0.003617,-0.003829,0.593846
462,2484260162,0.804565,0.003619,-0.003829,0.593842
463,2484276829,0.804548,0.003614,-0.003835,0.593865
464,2484293496,0.804556,0.003620,-0.003830,0.593854
465,2484310163,0.804750,0.003617,-0.003824,0.593591
466,2484326830,0.804781,0.003620,-0.003829,0.593549
467,2484343497,0.804810,0.003613,-0.003823,0.593510
468,2484360164,0.804796,0.003615,-0.003815,0.593528
469,2484376831,0.804781,0.003608,-0.003813,0.593549
470,2484393498,0.804747,0.003603,-0.003817,0.593595
471,2484410165,0.804796,0.003586,-0.003810,0.593529
472,2484426832,0.804747,0.003586,-0.003805,0.593596
473,2484443499,0.804772,0.003593,-0.003807,0.593561
474,2484460166,0.804910,0.003587,-0.003811,0.593374
475,2484476833,0.804954,0.003585,-0.003808,0.593314
476,2484493500,0.804979,0.003668,-0.003834,0.593280
477,2484510167,0.804956,0.003681,-0.003830,0.593311
478,2484526834,0.805007,0.003687,-0.003836,0.593242
479,2484543501,0.804961,0.003671,-0.003824,0.593304
480,2484560168,0.804907,0.003679,-0.003825,0.593377
481,2484576835,0.804946,0.003679,-0.003826,0.593325
482,2484593502,0.804947,0.003685,-0.003825,0.593324
483,2484610169,0.804900,0.003687,-0.003829,0.593387
484,2484626836,0.804880,0.003698,-0.003833,0.593415
485,2484643503,0.804772,0.003704,-0.003833,0.593561
486,2484660170,0.804764,0.003697,-0.003831,0.593571
487,2484676837,0.804756,0.003698,-0.003843,0.593582
488,2484693504,0.804731,0.003701,-0.003835,0.593616
489,2484710171,0.804758,0.003704,-0.003835,0.593580
490,2484726838,0.804761,0.003699,-0.003840,0.593575
491,2484743505,0.804737,0.003693,-0.003847,0.593608
492,2484760172,0.804730,0.003693,-0.003858,0.593618
493,2484776839,0.804699,0.003694,-0.003859,0.593659
494,2484793506,0.804716,0.003687,-0.003863,0.593637
495,2484810173,0.804697,0.003692,-0.003866,0.593662
496,2484826840,0.804699,0.003686,-0.003867,0.593659
497,2484843507,0.804724,0.003686,-0.003869,0.593626
498,2484860174,0.804715,0.003687,-0.003868,0.593637
499,2484876841,0.804718,0.003680,-0.003873,0.593633
500,2484893508,0.804686,0.003676,-0.003884,0.593677
501,2484910175,0.804681,0.003675,-0.003881,0.593683
502,2484926842,0.804670,0.003676,-0.003876,0.593698
503,2484943509,0.804575,0.003685,-0.003877,0.593827
504,2484960176,0.804585,0.003685,-0.003867,0.593814
505,2484976843,0.804599,0.003682,-0.003864,0.593795
506,2484993510,0.804595,0.003684,-0.003868,0.593801
507,2485010177,0.804610,0.003678,-0.003865,0.593779
508,2485026844,0.804595,0.003679,-0.003858,0.593800
509,2485043511,0.804674,0.003676,-0.003858,0.593693
510,2485060178,0.804647,0.003685,-0.003853,0.593730
511,2485076845,0.804639,0.003695,-0.003854,0.593741
512,2485093512,0.804626,0.003694,-0.003857,0.593759
513,2485110179,0.804618,0.003699,-0.003861,0.593770
514,2485126846,0.804613,0.003695,-0.003862,0.593776
515,2485143513,0.804607,0.003691,-0.003840,0.593784
516,2485160180,0.804570,0.003698,-0.003848,0.593835
517,2485176847,0.804567,0.003696,-0.003846,0.593839
518,2485193514,0.804607,0.003697,-0.003839,0.593785
519,2485210181,0.804611,0.003702,-0.003835,0.593779
520,2485226848,0.804605,0.003705,-0.003825,0.593787
521,2485243515,0.804654,0.003714,-0.003824,0.593721
522,2485260182,0.804713,0.003727,-0.003808,0.593641
523,2485276849,0.804769,0.003724,-0.003807,0.593564
524,2485293516,0.804776,0.003720,-0.003798,0.593556
525,2485310183,0.804767,0.003727,-0.003805,0.593567
526,2485326850,0.804764,0.003722,-0.003804,0.593571
527,2485343517,0.804762,0.003727,-0.003798,0.593575
528,2485360184,0.804690,0.003738,-0.003796,0.593671
529,2485376851,0.804687,0.003729,-0.003802,0.593676
530,2485393518,0.804762,0.003730,-0.003797,0.593574
531,2485410185,0.804701,0.003725,-0.003801,0.593656
532,2485426852,0.804706,0.003717,-0.003805,0.593650
533,2485443519,0.804679,0.003725,-0.003804,0.593687
534,2485460186,0.804720,0.003720,-0.003808,0.593631
535,2485476853,0.804726,0.003719,-0.003824,0.593623
536,2485493520,0.804739,0.003720,-0.003819,0.593605
537,2485510187,0.804781,0.003724,-0.003811,0.593549
538,2485526854,0.804807,0.003726,-0.003803,0.593513
539,2485543521,0.804812,0.003726,-0.003807,0.593507
540,2485560188,0.804826,0.003733,-0.003808,0.593488
541,2485576855,0.804820,0.003735,-0.003808,0.593495
542,2485593522,0.804823,0.003748,-0.003796,0.593491
543,2485610189,0.804863,0.003741,-0.003798,0.593437
544,2485626856,0.804870,0.003747,-0.003793,0.593428
545,2485643523,0.804838,0.003748,-0.003792,0.593471
546,2485660190,0.804843,0.003744,-0.003782,0.593464
547,2485676857,0.804825,0.003740,-0.003792,0.593489
548,2485693524,0.804840,0.003749,-0.003768,0.593469
549,2485710191,0.804852,0.003738,-0.003755,0.593452
550,2485726858,0.804870,0.003733,-0.003767,0.593427
551,2485743525,0.804876,0.003733,-0.003772,0.593420
552,2485760192,0.804856,0.003734,-0.003778,0.593447
553,2485776859,0.804858,0.003736,-0.003773,0.593444
554,2485793526,0.804854,0.003740,-0.003771,0.593450
555,2485810193,0.804871,0.003737,-0.003766,0.593426
556,2485826860,0.804888,0.003748,-0.003766,0.593404
557,2485843527,0.804808,0.003762,-0.003763,0.593512
558,2485860194,0.804915,0.003760,-0.003765,0.593366
559,2485876861,0.804933,0.003760,-0.003770,0.593343
560,2485893528,0.804934,0.003771,-0.003766,0.593341
561,2485910195,0.804914,0.003765,-0.003767,0.593367
562,2485926862,0.804871,0.003765,-0.003772,0.593427
563,2485943529,0.804855,0.003753,-0.003772,0.593448
564,2485960196,0.804866,0.003753,-0.003780,0.593434
565,2485976863,0.804847,0.003741,-0.003785,0.593459
566,2485993530,0.804848,0.003743,-0.003796,0.593458
567,2486010197,0.804850,0.003743,-0.003792,0.593454
568,2486026864,0.804887,0.003754,-0.003778,0.593405
569,2486043531,0.804916,0.003753,-0.003778,0.593366
570,2486060198,0.804920,0.003757,-0.003779,0.593359
571,2486076865,0.804842,0.003762,-0.003772,0.593466
572,2486093532,0.804851,0.003757,-0.003766,0.593453
573,2486110199,0.804824,0.003762,-0.003754,0.593490
574,2486126866,0.804833,0.003771,-0.003748,0.593478
575,2486143533,0.804826,0.003777,-0.003743,0.593487
576,2486160200,0.804757,0.003778,-0.003745,0.593581
577,2486176867,0.804768,0.003762,-0.003748,0.593566
578,2486193534,0.804757,0.003772,-0.003757,0.593581
579,2486210201,0.804725,0.003776,-0.003754,0.593624
580,2486226868,0.804754,0.003779,-0.003757,0.593585
581,2486243535,0.804733,0.003800,-0.003774,0.593613
582,2486260202,0.804736,0.003789,-0.003782,0.593610
583,2486276869,0.804726,0.003785,-0.003792,0.593623
584,2486293536,0.804716,0.003791,-0.003811,0.593636
585,2486310203,0.804791,0.003776,-0.003808,0.593534
586,2486326870,0.804776,0.003776,-0.003826,0.593554
587,2486343537,0.804833,0.003787,-0.003834,0.593478
588,2486360204,0.804815,0.003781,-0.003830,0.593501
589,2486376871,0.804813,0.003801,-0.003824,0.593505
590,2486393538,0.804806,0.003798,-0.003831,0.593514
591,2486410205,0.804794,0.003795,-0.003832,0.593530
592,2486426872,0.804796,0.003803,-0.003828,0.593528
593,2486443539,0.804803,0.003805,-0.003830,0.593518
594,2486460206,0.804862,0.003800,-0.003832,0.593437
595,2486476873,0.804848,0.003802,-0.003830,0.593457
596,2486493540,0.804866,0.003731,-0.003841,0.593433
597,2486510207,0.804869,0.003733,-0.003834,0.593429
598,2486526874,0.804850,0.003719,-0.003843,0.593455
599,2486543541,0.804808,0.003727,-0.003849,0.593512
600,2486560208,0.804807,0.003723,-0.003853,0.593513
601,2486576875,0.804801,0.003724,-0.003858,0.593521
602,2486593542,0.804799,0.003726,-0.003847,0.593523
603,2486610209,0.804821,0.003718,-0.003847,0.593494
604,2486626876,0.804857,0.003726,-0.003861,0.593444
605,2486643543,0.804873,0.003720,-0.003872,0.593424
606,2486660210,0.804810,0.003715,-0.003870,0.593509
607,2486676877,0.804784,0.003716,-0.003871,0.593544
608,2486693544,0.804790,0.003715,-0.003866,0.593535
609,2486710211,0.804785,0.003721,-0.003860,0.593542
610,2486726878,0.804787,0.003718,-0.003866,0.593540
611,2486743545,0.804791,0.003712,-0.003864,0.593534
612,2486760212,0.804790,0.003711,-0.003852,0.593536
613,2486776879,0.804807,0.003721,-0.003852,0.593512
614,2486793546,0.804821,0.003707,-0.003841,0.593494
615,2486810213,0.804823,0.003703,-0.003848,0.593492
616,2486826880,0.804883,0.003709,-0.003851,0.593409
617,2486843547,0.804891,0.003709,-0.003846,0.593399
618,2486860214,0.804908,0.003695,-0.003850,0.593376
619,2486876881,0.804938,0.003690,-0.003854,0.593336
620,2486893548,0.804992,0.003691,-0.003851,0.593262
621,2486910215,0.804971,0.003686,-0.003848,0.593291
622,2486926882,0.804964,0.003683,-0.003850,0.593301
623,2486943549,0.804888,0.003684,-0.003840,0.593404
624,2486960216,0.804867,0.003683,-0.003846,0.593432
625,2486976883,0.804876,0.003680,-0.003853,0.593420
626,2486993550,0.804872,0.003692,-0.003859,0.593425
627,2487010217,0.804827,0.003691,-0.003865,0.593486
628,2487026884,0.804855,0.003690,-0.003876,0.593448
629,2487043551,0.804855,0.003689,-0.003879,0.593448
630,2487060218,0.804856,0.003686,-0.003883,0.593447
631,2487076885,0.804861,0.003696,-0.003885,0.593440
632,2487093552,0.804803,0.003696,-0.003889,0.593518
633,2487110219,0.804788,0.003687,-0.003899,0.593538
634,2487126886,0.804813,0.003684,-0.003904,0.593504
635,2487143553,0.804804,0.003683,-0.003898,0.593517
636,2487160220,0.804823,0.003698,-0.003909,0.593491
637,2487176887,0.804887,0.003683,-0.003909,0.593404
638,2487193554,0.804849,0.003668,-0.003909,0.593456
639,2487210221,0.804872,0.003668,-0.003920,0.593425
640,2487226888,0.804882,0.003659,-0.003932,0.593411
641,2487243555,0.804930,0.003660,-0.003933,0.593346
642,2487260222,0.805010,0.003662,-0.003924,0.593237
643,2487276889,0.804923,0.003660,-0.003921,0.593355
644,2487293556,0.804943,0.003669,-0.003927,0.593329
645,2487310223,0.804924,0.003663,-0.003927,0.593354
646,2487326890,0.804914,0.003670,-0.003927,0.593368
647,2487343557,0.804907,0.003682,-0.003936,0.593377
648,2487360224,0.804993,0.003691,-0.003939,0.593260
649,2487376891,0.804985,0.003691,-0.003939,0.593272
650,2487393558,0.805001,0.003683,-0.003945,0.593249
651,2487410225,0.804997,0.003680,-0.003936,0.593255
652,2487426892,0.805007,0.003673,-0.003945,0.593241
653,2487443559,0.804995,0.003675,-0.003942,0.593258
654,2487460226,0.805001,0.003682,-0.003937,0.593249
655,2487476893,0.804969,0.003685,-0.003941,0.593292
656,2487493560,0.804965,0.003678,-0.003948,0.593298
657,2487510227,0.804965,0.003675,-0.003946,0.593299
658,2487526894,0.804941,0.003671,-0.003950,0.593331
659,2487543561,0.804935,0.003665,-0.003950,0.593339
660,2487560228,0.804941,0.003664,-0.003938,0.593331
661,2487576895,0.804944,0.003652,-0.003949,0.593327
662,2487593562,0.805009,0.003650,-0.003940,0.593239
663,2487610229,0.804997,0.003662,-0.003933,0.593255
664,2487626896,0.804979,0.003656,-0.003936,0.593280
665,2487643563,0.804976,0.003652,-0.003927,0.593283
666,2487660230,0.805019,0.003642,-0.003923,0.593226
667,2487676897,0.805065,0.003643,-0.003933,0.593163
668,2487693564,0.805061,0.003646,-0.003938,0.593169
669,2487710231,0.805017,0.003651,-0.003936,0.593228
670,2487726898,0.804997,0.003651,-0.003944,0.593255
671,2487743565,0.804966,0.003649,-0.003950,0.593297
672,2487760232,0.804943,0.003639,-0.003954,0.593329
673,2487776899,0.805002,0.003629,-0.003963,0.593249
674,2487793566,0.804968,0.003640,-0.003975,0.593294
675,2487810233,0.804972,0.003642,-0.003977,0.593289
676,2487826900,0.804996,0.003641,-0.003980,0.593256
677,2487843567,0.804987,0.003641,-0.003977,0.593268
678,2487860234,0.805030,0.003635,-0.003971,0.593211
679,2487876901,0.805034,0.003634,-0.003968,0.593205
680,2487893568,0.804994,0.003632,-0.003964,0.593259
681,2487910235,0.805025,0.003636,-0.003961,0.593218
682,2487926902,0.805027,0.003631,-0.003958,0.593215
683,2487943569,0.805047,0.003630,-0.003961,0.593187
684,2487960236,0.805067,0.003616,-0.003962,0.593160
685,2487976903,0.805006,0.003631,-0.003967,0.593243
686,2487993570,0.805036,0.003632,-0.003964,0.593202
687,2488010237,0.805095,0.003638,-0.003961,0.593121
688,2488026904,0.805151,0.003638,-0.003954,0.593045
689,2488043571,0.805127,0.003640,-0.003951,0.593079
690,2488060238,0.805174,0.003628,-0.003953,0.593015
691,2488076905,0.805190,0.003626,-0.003957,0.592993
692,2488093572,0.805166,0.003623,-0.003966,0.593026
693,2488110239,0.805250,0.003627,-0.003971,0.592912
694,2488126906,0.805221,0.003613,-0.003972,0.592951
695,2488143573,0.805282,0.003618,-0.003968,0.592868
696,2488160240,0.805243,0.003619,-0.003969,0.592920
697,2488176907,0.805211,0.003616,-0.003967,0.592964
698,2488193574,0.805240,0.003617,-0.003961,0.592925
699,2488210241,0.805234,0.003612,-0.003958,0.592933
700,2488226908,0.805190,0.003609,-0.003952,0.592994
701,2488243575,0.805276,0.003592,-0.003957,0.592877
702,2488260242,0.805314,0.003598,-0.003956,0.592825
703,2488276909,0.805263,0.003589,-0.003953,0.592894
704,2488293576,0.805345,0.003592,-0.003939,0.592782
705,2488310243,0.805400,0.003590,-0.003940,0.592708
706,2488326910,0.805207,0.003588,-0.003951,0.592970
707,2488343577,0.805215,0.003577,-0.003942,0.592959
708,2488360244,0.805217,0.003570,-0.003939,0.592956
709,2488376911,0.805221,0.003568,-0.003950,0.592951
710,2488393578,0.805221,0.003580,-0.003942,0.592951
711,2488410245,0.805219,0.003578,-0.003942,0.592955
712,2488426912,0.805216,0.003573,-0.003932,0.592958
713,2488443579,0.805218,0.003567,-0.003925,0.592956
714,2488460246,0.805370,0.003560,-0.003927,0.592749
715,2488476913,0.805541,0.003564,-0.003924,0.592517
716,2488493580,0.805499,0.003692,-0.003844,0.592573
717,2488510247,0.805499,0.003690,-0.003848,0.592573
718,2488526914,0.805500,0.003691,-0.003846,0.592572
719,2488543581,0.805503,0.003699,-0.003846,0.592568
720,2488560248,0.805504,0.003704,-0.003852,0.592567
721,2488576915,0.805507,0.003703,-0.003854,0.592562
722,2488593582,0.805505,0.003697,-0.003849,0.592566
723,2488610249,0.805504,0.003690,-0.003859,0.592567
724,2488626916,0.805507,0.003686,-0.003854,0.592563
725,2488643583,0.805507,0.003677,-0.003853,0.592563
726,2488660250,0.805510,0.003675,-0.003848,0.592558
727,2488676917,0.805514,0.003677,-0.003843,0.592553
728,2488693584,0.805539,0.003679,-0.003837,0.592520
729,2488710251,0.805548,0.003679,-0.003833,0.592507
730,2488726918,0.805520,0.003677,-0.003816,0.592545
731,2488743585,0.805492,0.003682,-0.003809,0.592583
732,2488760252,0.805550,0.003678,-0.003813,0.592504
733,2488776919,0.805548,0.003673,-0.003822,0.592507
734,2488793586,0.805546,0.003664,-0.003829,0.592510
735,2488810253,0.805543,0.003662,-0.003828,0.592514
736,2488826920,0.805544,0.003664,-0.003820,0.592512
737,2488843587,0.805543,0.003670,-0.003821,0.592514
738,2488860254,0.805546,0.003674,-0.003824,0.592510
739,2488876921,0.805547,0.003676,-0.003821,0.592509
740,2488893588,0.805546,0.003673,-0.003819,0.592510
741,2488910255,0.805548,0.003674,-0.003814,0.592507
742,2488926922,0.805547,0.003673,-0.003818,0.592508
743,2488943589,0.805544,0.003681,-0.003819,0.592512
744,2488960256,0.805543,0.003668,-0.003823,0.592514
745,2488976923,0.805544,0.003673,-0.003828,0.592513
746,2488993590,0.805547,0.003665,-0.003830,0.592509
747,2489010257,0.805546,0.003660,-0.003835,0.592510
748,2489026924,0.805547,0.003658,-0.003831,0.592508
749,2489043591,0.805544,0.003668,-0.003839,0.592512
750,2489060258,0.805551,0.003679,-0.003848,0.592503
751,2489076925,0.805551,0.003688,-0.003845,0.592503
752,2489093592,0.805624,0.003684,-0.003849,0.592404
753,2489110259,0.805623,0.003672,-0.003846,0.592405
754,2489126926,0.805625,0.003679,-0.003842,0.592402
755,2489143593,0.805626,0.003680,-0.003851,0.592401
756,2489160260,0.805627,0.003673,-0.003850,0.592400
757,2489176927,0.805628,0.003664,-0.003850,0.592398
758,2489193594,0.805630,0.003660,-0.003848,0.592395
759,2489210261,0.805627,0.003653,-0.003849,0.592400
760,2489226928,0.805563,0.003659,-0.003851,0.592487
761,2489243595,0.805565,0.003654,-0.003854,0.592484
762,2489260262,0.805570,0.003651,-0.003855,0.592477
763,2489276929,0.805571,0.003654,-0.003859,0.592476
764,2489293596,0.805568,0.003654,-0.003863,0.592480
765,2489310263,0.805568,0.003649,-0.003873,0.592479
766,2489326930,0.805569,0.003643,-0.003880,0.592478
767,2489343597,0.805569,0.003647,-0.003870,0.592478
768,2489360264,0.805570,0.003658,-0.003881,0.592477
769,2489376931,0.805568,0.003655,-0.003884,0.592480
770,2489393598,0.805568,0.003654,-0.003890,0.592479
771,2489410265,0.805570,0.003650,-0.003896,0.592477
772,2489426932,0.805570,0.003655,-0.003890,0.592476
773,2489443599,0.805571,0.003645,-0.003890,0.592475
774,2489460266,0.805577,0.003641,-0.003889,0.592467
775,2489476933,0.805576,0.003647,-0.003890,0.592468
776,2489493600,0.805573,0.003654,-0.003892,0.592474
777,2489510267,0.805570,0.003653,-0.003893,0.592476
778,2489526934,0.805570,0.003656,-0.003889,0.592477
779,2489543601,0.805568,0.003649,-0.003882,0.592480
780,2489560268,0.805567,0.003650,-0.003886,0.592481
781,2489576935,0.805569,0.003644,-0.003883,0.592479
782,2489593602,0.805567,0.003648,-0.003885,0.592481
783,2489610269,0.805564,0.003652,-0.003899,0.592485
784,2489626936,0.805569,0.003649,-0.003912,0.592478
785,2489643603,0.805568,0.003652,-0.003907,0.592479
786,2489660270,0.805569,0.003658,-0.003910,0.592478
787,2489676937,0.805568,0.003655,-0.003912,0.592480
788,2489693604,0.805568,0.003668,-0.003911,0.592480
789,2489710271,0.805569,0.003664,-0.003901,0.592478
790,2489726938,0.805569,0.003669,-0.003893,0.592478
791,2489743605,0.805575,0.003659,-0.003901,0.592470
792,2489760272,0.805575,0.003657,-0.003904,0.592470
793,2489776939,0.805580,0.003673,-0.003914,0.592463
794,2489793606,0.805579,0.003672,-0.003907,0.592465
795,2489810273,0.805565,0.003669,-0.003916,0.592483
796,2489826940,0.805592,0.003664,-0.003912,0.592446
797,2489843607,0.805579,0.003662,-0.003920,0.592464
798,2489860274,0.805569,0.003665,-0.003921,0.592478
799,2489876941,0.805569,0.003666,-0.003912,0.592478
800,2489893608,0.805564,0.003667,-0.003912,0.592485
801,2489910275,0.805566,0.003662,-0.003909,0.592481
802,2489926942,0.805544,0.003660,-0.003914,0.592512
803,2489943609,0.805619,0.003660,-0.003915,0.592411
804,2489960276,0.805600,0.003649,-0.003917,0.592436
805,2489976943,0.805606,0.003651,-0.003918,0.592428
806,2489993610,0.805610,0.003652,-0.003916,0.592422
807,2490010277,0.805606,0.003646,-0.003911,0.592428
808,2490026944,0.805607,0.003644,-0.003902,0.592427
809,2490043611,0.805608,0.003641,-0.003911,0.592425
810,2490060278,0.805611,0.003636,-0.003904,0.592421
811,2490076945,0.805606,0.003634,-0.003902,0.592428
812,2490093612,0.805608,0.003616,-0.003903,0.592426
813,2490110279,0.805602,0.003626,-0.003899,0.592433
814,2490126946,0.805599,0.003631,-0.003900,0.592437
815,2490143613,0.805598,0.003634,-0.003902,0.592438
816,2490160280,0.805597,0.003647,-0.003904,0.592440
817,2490176947,0.805598,0.003638,-0.003909,0.592439
818,2490193614,0.805686,0.003627,-0.003919,0.592319
819,2490210281,0.805667,0.003635,-0.003921,0.592345
820,2490226948,0.805668,0.003632,-0.003920,0.592343
821,2490243615,0.805667,0.003633,-0.003912,0.592345
822,2490260282,0.805668,0.003631,-0.003919,0.592344
823,2490276949,0.805662,0.003631,-0.003921,0.592352
824,2490293616,0.805667,0.003642,-0.003907,0.592346
825,2490310283,0.805665,0.003640,-0.003898,0.592347
826,2490326950,0.805667,0.003639,-0.003907,0.592346
827,2490343617,0.805668,0.003635,-0.003914,0.592343
828,2490360284,0.805664,0.003635,-0.003918,0.592349
829,2490376951,0.805665,0.003624,-0.003922,0.592348
830,2490393618,0.805664,0.003627,-0.003935,0.592350
831,2490410285,0.805663,0.003630,-0.003927,0.592350
832,2490426952,0.805664,0.003622,-0.003919,0.592349
833,2490443619,0.805665,0.003624,-0.003914,0.592348
834,2490460286,0.805665,0.003623,-0.003922,0.592348
835,2490476953,0.805666,0.003615,-0.003926,0.592346
836,2490493620,0.805660,0.003751,-0.003806,0.592355
837,2490510287,0.805664,0.003755,-0.003806,0.592350
838,2490526954,0.805665,0.003756,-0.003807,0.592348
839,2490543621,0.805662,0.003766,-0.003803,0.592351
840,2490560288,0.805664,0.003779,-0.003798,0.592348
841,2490576955,0.805660,0.003779,-0.003797,0.592354
842,2490593622,0.805659,0.003781,-0.003795,0.592356
843,2490610289,0.805660,0.003772,-0.003796,0.592355
844,2490626956,0.805655,0.003771,-0.003790,0.592361
845,2490643623,0.805655,0.003775,-0.003784,0.592362
846,2490660290,0.805654,0.003776,-0.003781,0.592363
847,2490676957,0.805657,0.003780,-0.003783,0.592358
848,2490693624,0.805652,0.003777,-0.003782,0.592365
849,2490710291,0.805654,0.003775,-0.003785,0.592363
850,2490726958,0.805652,0.003774,-0.003780,0.592366
851,2490743625,0.805653,0.003789,-0.003783,0.592364
852,2490760292,0.805653,0.003789,-0.003790,0.592364
853,2490776959,0.805651,0.003793,-0.003784,0.592367
854,2490793626,0.805650,0.003796,-0.003784,0.592368
855,2490810293,0.805654,0.003788,-0.003787,0.592363
856,2490826960,0.805597,0.003784,-0.003778,0.592441
857,2490843627,0.805617,0.003782,-0.003786,0.592413
858,2490860294,0.805659,0.003778,-0.003780,0.592355
859,2490876961,0.805543,0.003782,-0.003782,0.592514
860,2490893628,0.805465,0.003787,-0.003784,0.592620
861,2490910295,0.805435,0.003788,-0.003790,0.592660
862,2490926962,0.805468,0.003788,-0.003791,0.592616
863,2490943629,0.805689,0.003785,-0.003795,0.592315
864,2490960296,0.805662,0.003786,-0.003790,0.592352
865,2490976963,0.805697,0.003787,-0.003793,0.592304
866,2490993630,0.805633,0.003789,-0.003789,0.592391
867,2491010297,0.805532,0.003789,-0.003792,0.592529
868,2491026964,0.805495,0.003779,-0.003799,0.592578
869,2491043631,0.805539,0.003777,-0.003798,0.592519
870,2491060298,0.805440,0.003784,-0.003791,0.592653
871,2491076965,0.805457,0.003774,-0.003789,0.592631
872,2491093632,0.805468,0.003779,-0.003782,0.592616
873,2491110299,0.805494,0.003777,-0.003782,0.592580
874,2491126966,0.805448,0.003769,-0.003776,0.592643
875,2491143633,0.805466,0.003774,-0.003771,0.592619
876,2491160300,0.805542,0.003775,-0.003779,0.592515
877,2491176967,0.805566,0.003772,-0.003778,0.592482
878,2491193634,0.805545,0.003775,-0.003779,0.592511
879,2491210301,0.805596,0.003773,-0.003785,0.592441
880,2491226968,0.805664,0.003774,-0.003786,0.592349
881,2491243635,0.805684,0.003780,-0.003785,0.592322
882,2491260302,0.805738,0.003772,-0.003791,0.592249
883,2491276969,0.805900,0.003769,-0.003791,0.592029
884,2491293636,0.805859,0.003766,-0.003805,0.592083
885,2491310303,0.805804,0.003767,-0.003802,0.592159
886,2491326970,0.805789,0.003773,-0.003791,0.592179
887,2491343637,0.805802,0.003768,-0.003801,0.592161
888,2491360304,0.805829,0.003773,-0.003811,0.592124
889,2491376971,0.805815,0.003771,-0.003806,0.592144
890,2491393638,0.805756,0.003780,-0.003802,0.592223
891,2491410305,0.805734,0.003786,-0.003807,0.592254
892,2491426972,0.805696,0.003774,-0.003810,0.592306
893,2491443639,0.805626,0.003765,-0.003811,0.592400
894,2491460306,0.805559,0.003769,-0.003809,0.592492
895,2491476973,0.805627,0.003775,-0.003811,0.592399
896,2491493640,0.805614,0.003774,-0.003798,0.592417
897,2491510307,0.805546,0.003773,-0.003795,0.592510
898,2491526974,0.805497,0.003768,-0.003805,0.592576
899,2491543641,0.805510,0.003759,-0.003805,0.592559
900,2491560308,0.805504,0.003750,-0.003796,0.592566
901,2491576975,0.805502,0.003752,-0.003792,0.592569
902,2491593642,0.805536,0.003761,-0.003789,0.592523
903,2491610309,0.805447,0.003769,-0.003781,0.592645
904,2491626976,0.805422,0.003764,-0.003775,0.592678
905,2491643643,0.805421,0.003768,-0.003773,0.592679
906,2491660310,0.805386,0.003769,-0.003778,0.592727
907,2491676977,0.805570,0.003765,-0.003778,0.592477
908,2491693644,0.805583,0.003761,-0.003766,0.592460
909,2491710311,0.805681,0.003767,-0.003767,0.592326
910,2491726978,0.805663,0.003760,-0.003761,0.592351
911,2491743645,0.805749,0.003762,-0.003760,0.592234
912,2491760312,0.805715,0.003764,-0.003758,0.592280
913,2491776979,0.805703,0.003771,-0.003765,0.592296
914,2491793646,0.805569,0.003761,-0.003765,0.592478
915,2491810313,0.805477,0.003760,-0.003761,0.592603
916,2491826980,0.805432,0.003769,-0.003764,0.592665
917,2491843647,0.805506,0.003771,-0.003763,0.592564
918,2491860314,0.805505,0.003775,-0.003755,0.592565
919,2491876981,0.805498,0.003774,-0.003750,0.592575
920,2491893648,0.805620,0.003776,-0.003749,0.592408
921,2491910315,0.805611,0.003779,-0.003734,0.592422
922,2491926982,0.805702,0.003790,-0.003733,0.592298
923,2491943649,0.805713,0.003783,-0.003743,0.592282
924,2491960316,0.805717,0.003803,-0.003732,0.592278
925,2491976983,0.805785,0.003808,-0.003749,0.592185
926,2491993650,0.805782,0.003812,-0.003751,0.592189
927,2492010317,0.805741,0.003808,-0.003738,0.592245
928,2492026984,0.805646,0.003800,-0.003742,0.592374
929,2492043651,0.805590,0.003805,-0.003744,0.592449
930,2492060318,0.805647,0.003808,-0.003743,0.592373
931,2492076985,0.805645,0.003811,-0.003738,0.592376
932,2492093652,0.805690,0.003810,-0.003741,0.592313
933,2492110319,0.805694,0.003803,-0.003745,0.592309
934,2492126986,0.805799,0.003814,-0.003749,0.592166
935,2492143653,0.805847,0.003815,-0.003748,0.592101
936,2492160320,0.805786,0.003805,-0.003755,0.592184
937,2492176987,0.805852,0.003807,-0.003755,0.592094
938,2492193654,0.805899,0.003803,-0.003748,0.592029
939,2492210321,0.805895,0.003804,-0.003739,0.592035
940,2492226988,0.805846,0.003797,-0.003736,0.592102
941,2492243655,0.805776,0.003790,-0.003731,0.592197
942,2492260322,0.805742,0.003790,-0.003738,0.592243
943,2492276989,0.805685,0.003795,-0.003742,0.592320
944,2492293656,0.805786,0.003795,-0.003748,0.592183
945,2492310323,0.805818,0.003796,-0.003754,0.592140
946,2492326990,0.805834,0.003799,-0.003761,0.592118
947,2492343657,0.805853,0.003806,-0.003756,0.592092
948,2492360324,0.805854,0.003797,-0.003754,0.592091
949,2492376991,0.805706,0.003796,-0.003745,0.592291
950,2492393658,0.805707,0.003786,-0.003740,0.592291
951,2492410325,0.805670,0.003794,-0.003737,0.592341
952,2492426992,0.805701,0.003788,-0.003735,0.592299
953,2492443659,0.805574,0.003786,-0.003730,0.592472
954,2492460326,0.805588,0.003778,-0.003729,0.592452
955,2492476993,0.805580,0.003784,-0.003728,0.592463
956,2492493660,0.805599,0.003745,-0.003808,0.592437
957,2492510327,0.805577,0.003748,-0.003808,0.592467
958,2492526994,0.805577,0.003756,-0.003808,0.592467
959,2492543661,0.805531,0.003747,-0.003811,0.592529
960,2492560328,0.805472,0.003745,-0.003798,0.592610
961,2492576995,0.805556,0.003747,-0.003802,0.592496
962,2492593662,0.805573,0.003186,-0.003425,0.592478
963,2492610329,0.805572,0.003270,-0.003488,0.592479
964,2492626996,0.806210,0.003921,-0.003701,0.591606
965,2492643663,0.796636,0.004996,-0.005365,0.604415
966,2492660330,0.795769,0.006314,-0.007602,0.605520
967,2492676997,0.794731,0.008024,-0.007382,0.606864
968,2492693664,0.793123,0.010255,-0.008480,0.608916
969,2492710331,0.790347,0.003418,-0.011510,0.612542
970,2492726998,0.788085,-0.001072,-0.005010,0.615546
971,2492743665,0.788242,-0.009050,0.010137,0.615216
972,2492760332,0.785786,-0.015288,0.034360,0.617354
973,2492776999,0.779510,-0.024967,0.070999,0.621853
974,2492793666,0.765352,-0.033862,0.118257,0.631748
975,2492810333,0.747193,-0.008194,0.173242,0.641578
976,2492827000,0.729989,0.025498,0.243395,0.638142
977,2492843667,0.708042,0.063586,0.322556,0.624973
978,2492860334,0.679438,0.120387,0.405346,0.599638
979,2492877001,0.642754,0.210914,0.498548,0.542064
980,2492893668,0.586636,0.322638,0.593419,0.446785
981,2492910335,0.523071,0.414751,0.660344,0.343984
982,2492927002,0.456194,0.478461,0.705824,0.254509
983,2492943669,0.408894,0.510654,0.732047,0.190119
984,2492960336,0.384431,0.517168,0.750540,0.146427
985,2492977003,0.360449,0.518128,0.768977,0.101471
986,2492993670,0.331783,0.516877,0.787031,0.057805
987,2493010337,0.307282,0.512701,0.801239,0.027062
988,2493027004,0.277061,0.509594,0.814579,-0.003584
989,2493043671,0.255464,0.509346,0.821528,-0.019937
990,2493060338,0.247050,0.507368,0.825065,-0.028512
991,2493077005,0.238745,0.508515,0.826631,-0.033085
992,2493093672,0.232262,0.511457,0.826524,-0.036410
993,2493110339,0.221179,0.516279,0.826424,-0.039492
994,2493127006,0.207407,0.520977,0.827097,-0.038432
995,2493143673,0.193618,0.525020,0.828044,-0.034784
996,2493160340,0.182959,0.527086,0.829403,-0.028233
997,2493177007,0.171112,0.529358,0.830789,-0.017070
998,2493193674,0.161407,0.530926,0.831887,-0.005388
999,2493210341,0.154828,0.532556,0.832113,0.001024
1000,2493227008,0.146279,0.534448,0.832423,0.006341
1001,2493243675,0.141789,0.535296,0.832621,0.009864
1002,2493260342,0.139352,0.536296,0.832316,0.014766
1003,2493277009,0.139047,0.538116,0.831078,0.020190
1004,2493293676,0.137623,0.541079,0.829295,0.023733
1005,2493310343,0.137329,0.544936,0.826828,0.023263
1006,2493327010,0.137259,0.548849,0.824290,0.021717
1007,2493343677,0.137219,0.551314,0.822654,0.021563
1008,2493360344,0.137271,0.553163,0.821371,0.022776
1009,2493377011,0.138157,0.554772,0.820093,0.024262
1010,2493393678,0.137313,0.555953,0.819412,0.025013
1011,2493410345,0.134495,0.556975,0.819176,0.025325
1012,2493427012,0.131360,0.557702,0.819180,0.025644
1013,2493443679,0.126706,0.558347,0.819400,0.027905
1014,2493460346,0.123673,0.559029,0.819272,0.031385
1015,2493477013,0.122175,0.559352,0.819118,0.035279
1016,2493493680,0.120718,0.559324,0.819128,0.040179
1017,2493510347,0.121129,0.558833,0.819169,0.044677
1018,2493527014,0.123608,0.558648,0.818856,0.045915
1019,2493543681,0.126859,0.558610,0.818371,0.046167
1020,2493560348,0.130637,0.558521,0.817844,0.046037
1021,2493577015,0.133100,0.558382,0.817482,0.047096
1022,2493593682,0.135181,0.557554,0.817592,0.049021
1023,2493610349,0.139817,0.555100,0.818179,0.053841
1024,2493627016,0.142644,0.550977,0.820365,0.055491
1025,2493643683,0.150116,0.548085,0.820944,0.055855
1026,2493660350,0.156472,0.546671,0.820579,0.057610
1027,2493677017,0.157110,0.546298,0.820408,0.061700
1028,2493693684,0.155519,0.547363,0.819550,0.067425
1029,2493710351,0.155958,0.547952,0.818664,0.072223
1030,2493727018,0.155369,0.547552,0.818931,0.073482
1031,2493743685,0.144791,0.542778,0.824074,0.073004
1032,2493760352,0.141060,0.532413,0.831967,0.066865
1033,2493777019,0.152694,0.527927,0.833147,0.061996
1034,2493793686,0.163786,0.523010,0.834373,0.058791
1035,2493810353,0.173934,0.517861,0.835596,0.057847
1036,2493827020,0.184908,0.512671,0.836556,0.056141
1037,2493843687,0.194072,0.508163,0.837378,0.053899
1038,2493860354,0.203043,0.504824,0.837424,0.051452
1039,2493877021,0.209560,0.502748,0.837111,0.050738
1040,2493893688,0.213824,0.501675,0.836552,0.052757
1041,2493910355,0.218002,0.500224,0.836163,0.055521
1042,2493927022,0.220967,0.498274,0.836372,0.058127
1043,2493943689,0.223389,0.496050,0.836818,0.061388
1044,2493960356,0.226731,0.493530,0.837214,0.063983
1045,2493977023,0.230054,0.491388,0.837425,0.065830
1046,2493993690,0.232995,0.489280,0.837672,0.068001
1047,2494010357,0.235893,0.487135,0.837904,0.070508
1048,2494027024,0.238211,0.484984,0.838325,0.072513
1049,2494043691,0.238748,0.483240,0.839018,0.074355
1050,2494060358,0.238695,0.482048,0.839632,0.075324
1051,2494077025,0.238888,0.481224,0.840061,0.075193
1052,2494093692,0.239709,0.480973,0.840097,0.073775
1053,2494110359,0.241035,0.480914,0.839920,0.071827
1054,2494127026,0.242150,0.481268,0.839521,0.070348
1055,2494143693,0.243073,0.481606,0.839164,0.069096
1056,2494160360,0.243479,0.481589,0.839082,0.068796
1057,2494177027,0.242940,0.481475,0.839235,0.069629
1058,2494193694,0.242057,0.481356,0.839459,0.070808
1059,2494210361,0.241774,0.480824,0.839808,0.071246
1060,2494227028,0.242140,0.479951,0.840174,0.071578
1061,2494243695,0.242419,0.479187,0.840462,0.072372
1062,2494260362,0.242145,0.478720,0.840730,0.073258
1063,2494277029,0.241081,0.478125,0.841316,0.073920
1064,2494293696,0.239283,0.477280,0.842196,0.075193
1065,2494310363,0.238580,0.475959,0.843050,0.076225
1066,2494327030,0.238822,0.474778,0.843638,0.076322
1067,2494343697,0.238759,0.474417,0.843892,0.075955
1068,2494360364,0.237744,0.474906,0.844016,0.074699
1069,2494377031,0.236437,0.475461,0.844154,0.073751
1070,2494393698,0.234533,0.475847,0.844457,0.073872
1071,2494410365,0.233507,0.475652,0.844768,0.074812
1072,2494427032,0.234699,0.475375,0.844575,0.075021
1073,2494443699,0.236115,0.475659,0.844074,0.074411
1074,2494460366,0.237547,0.475980,0.843565,0.073581
1075,2494477033,0.239434,0.475953,0.843104,0.072914
1076,2494493700,0.242208,0.475397,0.842689,0.072176
1077,2494510367,0.245358,0.474519,0.842287,0.071998
1078,2494527034,0.246998,0.473532,0.842261,0.073178
1079,2494543701,0.247665,0.472330,0.842577,0.075040
1080,2494560368,0.248954,0.470650,0.843022,0.076317
1081,2494577035,0.250586,0.468610,0.843558,0.077606
1082,2494593702,0.251336,0.466382,0.844337,0.080092
1083,2494610369,0.253422,0.464348,0.844684,0.081662
1084,2494627036,0.256412,0.462384,0.844855,0.081704
1085,2494643703,0.259095,0.460760,0.844996,0.080944
1086,2494660370,0.262259,0.458705,0.845295,0.079284
1087,2494677037,0.265433,0.455120,0.846551,0.075916
1088,2494693704,0.269191,0.450599,0.848163,0.071531
1089,2494710371,0.273239,0.447778,0.848736,0.066959
1090,2494727038,0.274778,0.449638,0.847588,0.062594
1091,2494743705,0.274972,0.454261,0.845583,0.055026
1092,2494760372,0.272211,0.461485,0.842981,0.048136
1093,2494777039,0.261638,0.476778,0.838265,0.039258
1094,2494793706,0.252276,0.494301,0.831364,0.029287
1095,2494810373,0.253550,0.509729,0.821833,0.021907
1096,2494827040,0.253752,0.523099,0.813424,0.017885
1097,2494843707,0.252208,0.535020,0.806149,0.016384
1098,2494860374,0.249231,0.547792,0.798495,0.014616
1099,2494877041,0.242746,0.567416,0.786786,0.009027
1100,2494893708,0.231437,0.582561,0.779126,-0.004889
1101,2494910375,0.206394,0.596507,0.775109,-0.028060
1102,2494927042,0.186974,0.601734,0.775113,-0.046449
1103,2494943709,0.166281,0.592128,0.786231,-0.059810
1104,2494960376,0.149240,0.573271,0.802543,-0.070807
1105,2494977043,0.140902,0.564740,0.809540,-0.076561
1106,2494993710,0.134799,0.557635,0.815137,-0.080149
1107,2495010377,0.131004,0.551606,0.819863,-0.079967
1108,2495027044,0.127960,0.545328,0.824983,-0.075149
1109,2495043711,0.125114,0.537801,0.831324,-0.063381
1110,2495060378,0.118768,0.526483,0.840775,-0.042517
1111,2495077045,0.113823,0.515128,0.849342,-0.017501
1112,2495093712,0.106689,0.505216,0.856347,0.006698
1113,2495110379,0.092274,0.495151,0.863172,0.035294
1114,2495127046,0.073756,0.485005,0.868441,0.071699
1115,2495143713,0.054872,0.472824,0.872377,0.111289
1116,2495160380,0.038126,0.453087,0.878286,0.147894
1117,2495177047,0.024957,0.431401,0.886299,0.166567
1118,2495193714,0.007369,0.416370,0.889727,0.186998
1119,2495210381,0.003973,0.403214,0.893811,0.196229
1120,2495227048,0.000971,0.392445,0.897621,0.200658
1121,2495243715,-0.005041,0.381917,0.902416,0.199400
1122,2495260382,-0.013321,0.373903,0.907373,0.191555
1123,2495277049,-0.023000,0.368361,0.912321,0.177345
1124,2495293716,-0.029921,0.371000,0.912254,0.171044
1125,2495310383,-0.029595,0.376117,0.909911,0.172400
1126,2495327050,-0.025065,0.384122,0.905572,0.178217
1127,2495343717,-0.016345,0.397923,0.898741,0.183455
1128,2495360384,-0.001463,0.418858,0.890357,0.178384
1129,2495377051,0.010365,0.443926,0.877789,0.179747
1130,2495393718,0.021581,0.471522,0.861026,0.189305
1131,2495410385,0.033858,0.495467,0.846035,0.193889
1132,2495427052,0.037788,0.513183,0.834758,0.195948
1133,2495443719,0.039870,0.522775,0.827142,0.202371
1134,2495460386,0.048538,0.518493,0.829697,0.201026
1135,2495477053,0.064216,0.516459,0.830657,0.197878
1136,2495493720,0.081353,0.509524,0.832360,0.202347
1137,2495510387,0.092126,0.503451,0.833021,0.210062
1138,2495527054,0.094168,0.494747,0.835824,0.218535
1139,2495543721,0.091743,0.483794,0.840367,0.226516
1140,2495560388,0.084812,0.470508,0.847232,0.231577
1141,2495577055,0.080574,0.456600,0.854544,0.234052
1142,2495593722,0.072219,0.439846,0.863121,0.237366
1143,2495610389,0.045505,0.422691,0.874131,0.234854
1144,2495627056,0.011123,0.406347,0.887347,0.217656
1145,2495643723,-0.014505,0.395955,0.897626,0.193075
1146,2495660390,-0.034477,0.396031,0.900446,0.176544
1147,2495677057,-0.048250,0.406993,0.895763,0.172157
1148,2495693724,-0.054399,0.423270,0.887101,0.175887
1149,2495710391,-0.055321,0.437565,0.879808,0.177241
1150,2495727058,-0.055796,0.446456,0.875086,0.178292
1151,2495743725,-0.052253,0.449342,0.872626,0.184080
1152,2495760392,-0.044107,0.450345,0.871268,0.190099
1153,2495777059,-0.040165,0.453035,0.869400,0.193109
1154,2495793726,-0.047893,0.459412,0.866005,0.191526
1155,2495810393,-0.062690,0.465346,0.862078,0.190645
1156,2495827060,-0.079762,0.468421,0.857693,0.196425
1157,2495843727,-0.092994,0.472363,0.852767,0.202521
1158,2495860394,-0.088745,0.479890,0.849031,0.202429
1159,2495877061,-0.082923,0.485066,0.846756,0.202089
1160,2495893728,-0.078851,0.486310,0.845542,0.205779
1161,2495910395,-0.075096,0.487354,0.845158,0.206288
1162,2495927062,-0.067351,0.494174,0.841147,0.209114
1163,2495943729,-0.059071,0.501711,0.834967,0.218238
1164,2495960396,-0.054164,0.503676,0.829557,0.234973
1165,2495977063,-0.046652,0.504957,0.825654,0.247262
1166,2495993730,-0.040576,0.505919,0.822981,0.255153
1167,2496010397,-0.035799,0.507423,0.821135,0.258800
1168,2496027064,-0.030320,0.511190,0.820172,0.255118
1169,2496043731,-0.025866,0.515300,0.818557,0.252513
1170,2496060398,-0.022826,0.518714,0.815400,0.256005
1171,2496077065,-0.023628,0.520179,0.812439,0.262296
1172,2496093732,-0.028051,0.520841,0.810326,0.267040
1173,2496110399,-0.033413,0.522192,0.808983,0.267854
1174,2496127066,-0.037168,0.526287,0.805264,0.270538
1175,2496143733,-0.038295,0.527605,0.800255,0.282418
1176,2496160400,-0.037875,0.525620,0.795711,0.298553
1177,2496177067,-0.036786,0.523693,0.792056,0.311512
1178,2496193734,-0.035990,0.522246,0.789755,0.319767
1179,2496210401,-0.036844,0.521527,0.787900,0.325371
1180,2496227068,-0.036965,0.522534,0.785223,0.330177
1181,2496243735,-0.034242,0.521462,0.780866,0.342279
1182,2496260402,-0.027302,0.517413,0.775538,0.360666
1183,2496277069,-0.020513,0.514122,0.770994,0.375269
1184,2496293736,-0.016547,0.515686,0.767524,0.380398
1185,2496310403,-0.012016,0.522508,0.762913,0.380533
1186,2496327070,-0.003216,0.529398,0.757122,0.382746
1187,2496343737,0.009563,0.536718,0.749127,0.388139
1188,2496360404,0.020411,0.545708,0.738331,0.395796
1189,2496377071,0.019359,0.555822,0.729713,0.397752
1190,2496393738,0.006528,0.561130,0.733358,0.383768
1191,2496410405,-0.014857,0.573641,0.730229,0.370784
1192,2496427072,-0.016898,0.588627,0.721178,0.364878
1193,2496443739,-0.027798,0.603035,0.714830,0.352980
1194,2496460406,-0.033977,0.618014,0.709670,0.336561
1195,2496477073,-0.019145,0.638293,0.698207,0.323609
1196,2496493740,0.011930,0.651460,0.695557,0.302752
1197,2496510407,0.043116,0.662283,0.688913,0.291414
1198,2496527074,0.072105,0.705365,0.655605,0.259699
1199,2496543741,0.051487,0.720639,0.645380,0.248018
1200,2496560408,0.007124,0.720509,0.631334,0.286765
1201,2496577075,-0.017566,0.722785,0.621520,0.301639
1202,2496593742,-0.030551,0.724506,0.612641,0.314371
1203,2496610409,-0.038449,0.727639,0.603515,0.323779
1204,2496627076,-0.060104,0.728305,0.602553,0.320764
1205,2496643743,-0.068648,0.730731,0.600208,0.317917
1206,2496660410,-0.090040,0.718855,0.603359,0.333315
1207,2496677077,-0.112839,0.689306,0.626013,0.346747
1208,2496693744,-0.130824,0.660913,0.649495,0.352472
1209,2496710411,-0.156954,0.633266,0.672319,0.349754
1210,2496727078,-0.191715,0.613231,0.678498,0.356139
1211,2496743745,-0.227910,0.601832,0.674106,0.362543
1212,2496760412,-0.246914,0.588451,0.676246,0.368038
1213,2496777079,-0.267358,0.573122,0.682485,0.366422
1214,2496793746,-0.289542,0.557903,0.689014,0.360790
1215,2496810413,-0.306052,0.546249,0.691396,0.360439
1216,2496827080,-0.315724,0.538258,0.689990,0.366757
1217,2496843747,-0.318865,0.535029,0.685736,0.376612
1218,2496860414,-0.321231,0.532678,0.679465,0.389092
1219,2496877081,-0.325734,0.527677,0.671005,0.406458
1220,2496893748,-0.334430,0.518901,0.661570,0.425704
1221,2496910415,-0.339915,0.513753,0.660829,0.428744
1222,2496927082,-0.347613,0.513569,0.664144,0.417523
1223,2496943749,-0.367345,0.514687,0.649544,0.422194
1224,2496960416,-0.423565,0.524634,0.602419,0.427135
1225,2496977083,-0.502694,0.525488,0.536918,0.427646
1226,2496993750,-0.603496,0.497466,0.453135,0.427772
1227,2497010417,-0.685345,0.451983,0.352524,0.449156
1228,2497027084,-0.715331,0.430453,0.290684,0.467457
1229,2497043751,-0.731926,0.416618,0.261771,0.471372
1230,2497060418,-0.744863,0.412515,0.251586,0.460125
1231,2497077085,-0.754905,0.414410,0.245870,0.444895
1232,2497093752,-0.762671,0.418028,0.242704,0.429745
1233,2497110419,-0.772194,0.415698,0.245983,0.412801
1234,2497127086,-0.783983,0.411288,0.244869,0.395289
1235,2497143753,-0.796929,0.397261,0.239962,0.386662
1236,2497160420,-0.803897,0.392648,0.247576,0.371864
1237,2497177087,-0.805559,0.391728,0.261475,0.359520
1238,2497193754,-0.805148,0.385386,0.283500,0.350490
1239,2497210421,-0.803210,0.386611,0.306411,0.333914
1240,2497227088,-0.799719,0.389445,0.323762,0.322429
1241,2497243755,-0.798639,0.382765,0.337022,0.319505
1242,2497260422,-0.797114,0.374669,0.346905,0.322319
1243,2497277089,-0.791754,0.370299,0.353030,0.333730
1244,2497293756,-0.786096,0.367876,0.355591,0.346808
1245,2497310423,-0.778204,0.379377,0.365702,0.341665
1246,2497327090,-0.777903,0.386335,0.367873,0.332088
1247,2497343757,-0.780508,0.388593,0.364890,0.326586
1248,2497360424,-0.788722,0.388959,0.350065,0.322620
1249,2497377091,-0.799840,0.380253,0.329601,0.327150
1250,2497393758,-0.815143,0.357498,0.305301,0.338421
1251,2497410425,-0.827286,0.332509,0.280341,0.355590
1252,2497427092,-0.833697,0.307152,0.265358,0.374424
1253,2497443759,-0.838319,0.284557,0.254696,0.389076
1254,2497460426,-0.840110,0.258497,0.247877,0.407373
1255,2497477093,-0.839157,0.236471,0.246551,0.423214
1256,2497493760,-0.836662,0.214166,0.248002,0.438891
1257,2497510427,-0.832738,0.188204,0.246798,0.458496
1258,2497527094,-0.826610,0.169923,0.251244,0.474045
1259,2497543761,-0.823858,0.176173,0.256643,0.473662
1260,2497560428,-0.818034,0.183173,0.270503,0.473389
1261,2497577095,-0.809949,0.195910,0.291357,0.469801
1262,2497593762,-0.799545,0.216234,0.318241,0.461188
1263,2497610429,-0.798388,0.236517,0.333792,0.441838
1264,2497627096,-0.801446,0.253329,0.337845,0.423521
1265,2497643763,-0.804880,0.261756,0.340222,0.409758
1266,2497660430,-0.808645,0.259606,0.342706,0.401562
1267,2497677097,-0.811469,0.255653,0.347275,0.394411
1268,2497693764,-0.812992,0.251605,0.350343,0.391151
1269,2497710431,-0.815591,0.239284,0.351971,0.392009
1270,2497727098,-0.818879,0.213992,0.354035,0.397876
1271,2497743765,-0.819584,0.200812,0.356189,0.401356
1272,2497760432,-0.819322,0.200613,0.351900,0.405750
1273,2497777099,-0.818850,0.199110,0.347447,0.411244
1274,2497793766,-0.822061,0.190553,0.343693,0.412045
1275,2497810433,-0.830159,0.177314,0.337321,0.406953
1276,2497827100,-0.841320,0.160152,0.331453,0.395817
1277,2497843767,-0.851755,0.146689,0.323755,0.384941
1278,2497860434,-0.861226,0.141712,0.304459,0.381461
1279,2497877101,-0.870558,0.136136,0.282663,0.379077
1280,2497893768,-0.880019,0.133450,0.260705,0.373885
1281,2497910435,-0.888676,0.129813,0.241448,0.367571
1282,2497927102,-0.896113,0.126301,0.225471,0.360822
1283,2497943769,-0.902055,0.124852,0.216165,0.352110
1284,2497960436,-0.907837,0.123902,0.215011,0.338012
1285,2497977103,-0.914268,0.121758,0.214840,0.321145
1286,2497993770,-0.921143,0.118265,0.215623,0.301688
1287,2498010437,-0.925101,0.115348,0.221590,0.285975
1288,2498027104,-0.925704,0.113197,0.230398,0.277808
1289,2498043771,-0.921265,0.104551,0.240009,0.287638
1290,2498060438,-0.911134,0.085205,0.251885,0.314848
1291,2498077105,-0.901277,0.061218,0.264800,0.337393
1292,2498093772,-0.896672,0.042415,0.275456,0.343954
1293,2498110439,-0.896063,0.032257,0.280078,0.342910
1294,2498127106,-0.896056,0.031435,0.284138,0.339650
1295,2498143773,-0.898039,0.024915,0.282047,0.336684
1296,2498160440,-0.898332,0.013876,0.275680,0.341771
1297,2498177107,-0.895132,-0.001484,0.268273,0.356044
1298,2498193774,-0.892653,-0.014269,0.258251,0.369152
1299,2498210441,-0.892738,-0.015900,0.250559,0.374147
1300,2498227108,-0.892128,-0.017010,0.242310,0.380927
1301,2498243775,-0.887934,-0.014547,0.239118,0.392664
1302,2498260442,-0.884822,-0.011762,0.235559,0.401826
1303,2498277109,-0.882584,-0.012141,0.229182,0.410336
1304,2498293776,-0.880405,-0.014801,0.220748,0.419450
1305,2498310443,-0.878907,-0.018585,0.211498,0.427136
1306,2498327110,-0.877344,-0.020862,0.204767,0.433478
1307,2498343777,-0.875711,-0.022566,0.197666,0.439944
1308,2498360444,-0.872862,-0.024442,0.190651,0.448516
1309,2498377111,-0.867955,-0.026136,0.184145,0.460502
1310,2498393778,-0.860801,-0.026667,0.177730,0.476155
1311,2498410445,-0.853981,-0.024948,0.171187,0.490703
1312,2498427112,-0.847123,-0.018949,0.166558,0.504265
1313,2498443779,-0.841960,-0.002456,0.175914,0.510051
1314,2498460446,-0.834228,0.016559,0.179674,0.521063
1315,2498477113,-0.825378,0.040819,0.181512,0.533047
1316,2498493780,-0.811857,0.065897,0.178925,0.551844
1317,2498510447,-0.798004,0.079575,0.183209,0.568588
1318,2498527114,-0.781205,0.089862,0.190822,0.587564
1319,2498543781,-0.767260,0.110945,0.207257,0.596697
1320,2498560448,-0.753225,0.133680,0.220629,0.605066
1321,2498577115,-0.738945,0.156661,0.227717,0.614461
1322,2498593782,-0.719554,0.178148,0.229168,0.630863
1323,2498610449,-0.700647,0.202142,0.217766,0.648699
1324,2498627116,-0.694747,0.203843,0.197714,0.660821
1325,2498643783,-0.709420,0.170363,0.192552,0.656219
1326,2498660450,-0.715683,0.169392,0.151851,0.660338
1327,2498677117,-0.699496,0.181778,0.139383,0.676931
1328,2498693784,-0.686855,0.202473,0.135829,0.684680
1329,2498710451,-0.679839,0.216600,0.134732,0.687569
1330,2498727118,-0.676016,0.224767,0.130600,0.689512
1331,2498743785,-0.676516,0.230030,0.165172,0.679802
1332,2498760452,-0.682046,0.224001,0.207759,0.664435
1333,2498777119,-0.683770,0.250691,0.229335,0.645770
1334,2498793786,-0.673423,0.313167,0.233688,0.627550
1335,2498810453,-0.652352,0.356040,0.180468,0.644286
1336,2498827120,-0.635939,0.368534,0.148012,0.661708
1337,2498843787,-0.635094,0.363952,0.143766,0.665978
1338,2498860454,-0.642912,0.341495,0.143056,0.670508
1339,2498877121,-0.651248,0.322231,0.138070,0.673038
1340,2498893788,-0.658369,0.306735,0.135034,0.673966
1341,2498910455,-0.662398,0.293065,0.132122,0.676672
1342,2498927122,-0.662647,0.282030,0.133056,0.680921
1343,2498943789,-0.662880,0.263646,0.144462,0.685720
1344,2498960456,-0.663274,0.247351,0.156904,0.688671
1345,2498977123,-0.660766,0.244637,0.168945,0.689202
1346,2498993790,-0.656803,0.250820,0.178793,0.688283
1347,2499010457,-0.650873,0.262697,0.186781,0.687363
1348,2499027124,-0.640275,0.285498,0.188725,0.687693
1349,2499043791,-0.633174,0.309062,0.189412,0.683883
1350,2499060458,-0.629198,0.328033,0.191326,0.678159
1351,2499077125,-0.625900,0.337555,0.199569,0.674150
1352,2499093792,-0.623210,0.344100,0.213787,0.668954
1353,2499110459,-0.611037,0.360516,0.221327,0.669086
1354,2499127126,-0.591569,0.383455,0.217830,0.674951
1355,2499143793,-0.568044,0.410942,0.209370,0.681629
1356,2499160460,-0.541582,0.446742,0.204724,0.682055
1357,2499177127,-0.514219,0.477411,0.197692,0.684527
1358,2499193794,-0.484461,0.498483,0.188612,0.693713
1359,2499210461,-0.451261,0.517380,0.176890,0.705260
1360,2499227128,-0.418374,0.537100,0.165146,0.713593
1361,2499243795,-0.392277,0.553786,0.159044,0.717039
1362,2499260462,-0.365524,0.574978,0.159618,0.714364
1363,2499277129,-0.340377,0.589791,0.161658,0.714253
1364,2499293796,-0.323686,0.598056,0.164196,0.714560
1365,2499310463,-0.315456,0.604714,0.171705,0.710863
1366,2499327130,-0.316145,0.608746,0.188928,0.702700
1367,2499343797,-0.327874,0.606248,0.210996,0.693140
1368,2499360464,-0.343076,0.598970,0.229264,0.686274
1369,2499377131,-0.354514,0.591469,0.232000,0.686047
1370,2499393798,-0.358505,0.590670,0.232816,0.684383
1371,2499410465,-0.360260,0.590096,0.233319,0.683785
1372,2499427132,-0.366107,0.588852,0.235932,0.680849
1373,2499443799,-0.371768,0.588262,0.244161,0.675369
1374,2499460466,-0.374569,0.589272,0.248407,0.671381
1375,2499477133,-0.376578,0.589105,0.253666,0.668430
1376,2499493800,-0.382021,0.585527,0.260139,0.665993
1377,2499510467,-0.395752,0.578115,0.266177,0.662053
1378,2499527134,-0.405250,0.573298,0.266396,0.660406
1379,2499543801,-0.407457,0.570039,0.262631,0.663370
1380,2499560468,-0.410342,0.566211,0.259806,0.665977
1381,2499577135,-0.410065,0.563646,0.255404,0.670014
1382,2499593802,-0.410913,0.558529,0.252814,0.674745
1383,2499610469,-0.410095,0.553838,0.251241,0.679679
1384,2499627136,-0.411485,0.549406,0.247814,0.683682
1385,2499643803,-0.411911,0.546541,0.243425,0.687290
1386,2499660470,-0.408137,0.545215,0.235844,0.693213
1387,2499677137,-0.403080,0.544308,0.227272,0.699716
1388,2499693804,-0.393900,0.541759,0.221291,0.708781
1389,2499710471,-0.385315,0.541612,0.214587,0.715641
1390,2499727138,-0.372903,0.543385,0.206143,0.723313
1391,2499743805,-0.349395,0.549138,0.199053,0.732632
1392,2499760472,-0.323731,0.553752,0.192914,0.742524
1393,2499777139,-0.297897,0.561783,0.183134,0.749747
1394,2499793806,-0.272787,0.572254,0.170514,0.754346
1395,2499810473,-0.251734,0.578709,0.161951,0.758616
1396,2499827140,-0.230261,0.581782,0.145440,0.766392
1397,2499843807,-0.217302,0.580381,0.127638,0.774369
1398,2499860474,-0.212215,0.569529,0.100948,0.787662
1399,2499877141,-0.213343,0.552294,0.072448,0.802626
1400,2499893808,-0.218162,0.527731,0.051183,0.819321
1401,2499910475,-0.227220,0.505407,0.036664,0.831620
1402,2499927142,-0.238628,0.486544,0.026707,0.840011
1403,2499943809,-0.250920,0.478480,0.018403,0.841283
1404,2499960476,-0.259930,0.476590,0.006308,0.839797
1405,2499977143,-0.271526,0.461006,-0.017814,0.844648
1406,2499993810,-0.276219,0.426371,-0.040760,0.860378
1407,2500010477,-0.289151,0.401944,-0.038647,0.867952
1408,2500027144,-0.308657,0.398976,-0.034909,0.862746
1409,2500043811,-0.319232,0.407903,-0.030067,0.854870
1410,2500060478,-0.337565,0.419639,-0.020485,0.842338
1411,2500077145,-0.365760,0.434221,-0.018981,0.822990
1412,2500093812,-0.378759,0.444228,-0.018401,0.811705
1413,2500110479,-0.382594,0.447660,-0.018297,0.808015
1414,2500127146,-0.385221,0.449181,-0.020784,0.805859
1415,2500143813,-0.395607,0.453815,-0.020104,0.798213
1416,2500160480,-0.412008,0.465577,-0.021260,0.782966
1417,2500177147,-0.424424,0.481102,-0.026642,0.766613
1418,2500193814,-0.426579,0.489305,-0.035832,0.759821
1419,2500210481,-0.432307,0.488837,-0.049985,0.756076
1420,2500227148,-0.439270,0.490255,-0.066556,0.749842
1421,2500243815,-0.443080,0.497184,-0.077324,0.741963
1422,2500260482,-0.449546,0.503495,-0.080991,0.733377
1423,2500277149,-0.457790,0.507829,-0.080600,0.725288
1424,2500293816,-0.465664,0.510808,-0.076155,0.718633
1425,2500310483,-0.476402,0.509159,-0.069913,0.713380
1426,2500327150,-0.487540,0.510494,-0.069722,0.704869
1427,2500343817,-0.495682,0.521817,-0.072693,0.690451
1428,2500360484,-0.499740,0.541959,-0.077959,0.671166
1429,2500377151,-0.501342,0.563269,-0.079915,0.651919
1430,2500393818,-0.504125,0.570476,-0.074976,0.644045
1431,2500410485,-0.507465,0.566324,-0.072994,0.645313
1432,2500427152,-0.500326,0.561270,-0.077190,0.654746
1433,2500443819,-0.478592,0.573713,-0.086902,0.658978
1434,2500460486,-0.465414,0.582225,-0.093695,0.660020
1435,2500477153,-0.456242,0.593079,-0.096123,0.656401
1436,2500493820,-0.448826,0.596845,-0.099731,0.657560
1437,2500510487,-0.442641,0.593749,-0.106303,0.663499
1438,2500527154,-0.436631,0.590209,-0.113731,0.669382
1439,2500543821,-0.431669,0.584360,-0.119009,0.676773
1440,2500560488,-0.430132,0.577738,-0.121540,0.682959
1441,2500577155,-0.432462,0.573267,-0.120058,0.685513
1442,2500593822,-0.439660,0.569917,-0.113872,0.684783
1443,2500610489,-0.450320,0.565958,-0.106027,0.682395
1444,2500627156,-0.464141,0.563883,-0.093639,0.676639
1445,2500643823,-0.479016,0.565813,-0.075223,0.666890
1446,2500660490,-0.493130,0.564921,-0.054613,0.659322
1447,2500677157,-0.506054,0.563210,-0.029976,0.652538
1448,2500693824,-0.517407,0.556343,-0.003555,0.650201
1449,2500710491,-0.526304,0.546982,0.021385,0.650660
1450,2500727158,-0.533467,0.539150,0.046798,0.650031
1451,2500743825,-0.544637,0.529696,0.074539,0.645939
1452,2500760492,-0.559252,0.517248,0.108267,0.638726
1453,2500777159,-0.576902,0.503102,0.146769,0.626524
1454,2500793826,-0.594744,0.489078,0.192215,0.608388
1455,2500810493,-0.606757,0.480532,0.241282,0.585422
1456,2500827160,-0.614294,0.470077,0.285501,0.565827
1457,2500843827,-0.616109,0.462191,0.324461,0.549103
1458,2500860494,-0.615404,0.457171,0.352974,0.536361
1459,2500877161,-0.614071,0.455926,0.371263,0.526510
1460,2500893828,-0.614451,0.454864,0.381828,0.519382
1461,2500910495,-0.614599,0.454079,0.388398,0.515002
1462,2500927162,-0.613741,0.453228,0.393271,0.513073
1463,2500943829,-0.611691,0.452226,0.397614,0.513059
1464,2500960496,-0.608930,0.450994,0.403983,0.512452
1465,2500977163,-0.605818,0.449913,0.413402,0.509571
1466,2500993830,-0.606050,0.448037,0.422116,0.503770
1467,2501010497,-0.607059,0.447406,0.428209,0.497940
1468,2501027164,-0.606841,0.446817,0.434056,0.493655
1469,2501043831,-0.605843,0.446010,0.439564,0.490728
1470,2501060498,-0.605134,0.443880,0.445434,0.488234
1471,2501077165,-0.605330,0.441053,0.451765,0.484724
1472,2501093832,-0.604729,0.439761,0.457225,0.481517
1473,2501110499,-0.603477,0.439463,0.461670,0.479114
1474,2501127166,-0.602218,0.439200,0.465380,0.477346
1475,2501143833,-0.600426,0.440325,0.467622,0.476375
1476,2501160500,-0.603482,0.437670,0.469071,0.473527
1477,2501177167,-0.605880,0.434093,0.470757,0.472081
1478,2501193834,-0.607554,0.431566,0.472160,0.470843
1479,2501210501,-0.609318,0.429877,0.472657,0.469611
1480,2501227168,-0.610670,0.429367,0.471638,0.469343
1481,2501243835,-0.611134,0.428807,0.470804,0.470089
1482,2501260502,-0.611563,0.426753,0.472680,0.469517
1483,2501277169,-0.612175,0.424659,0.474946,0.468331
1484,2501293836,-0.612820,0.423016,0.476923,0.466962
1485,2501310503,-0.612894,0.421048,0.479587,0.465915
1486,2501327170,-0.612129,0.419386,0.482874,0.465024
1487,2501343837,-0.610911,0.417718,0.485842,0.465035
1488,2501360504,-0.608868,0.416265,0.488455,0.466279
1489,2501377171,-0.607310,0.413386,0.490605,0.468608
1490,2501393838,-0.606205,0.411456,0.493031,0.469192
1491,2501410505,-0.604599,0.412014,0.494123,0.469624
1492,2501427172,-0.601996,0.412400,0.497333,0.469242
1493,2501443839,-0.598995,0.412233,0.501862,0.468405
1494,2501460506,-0.595395,0.413420,0.505612,0.467916
1495,2501477173,-0.592169,0.418839,0.507744,0.464872
1496,2501493840,-0.594853,0.415875,0.508709,0.463048
1497,2501510507,-0.598718,0.409857,0.505224,0.467229
1498,2501527174,-0.600154,0.408329,0.500900,0.471363
1499,2501543841,-0.602201,0.406020,0.494354,0.477615
1500,2501560508,-0.604607,0.402645,0.490416,0.481477
1501,2501577175,-0.604956,0.400804,0.487618,0.485400
1502,2501593842,-0.604481,0.397267,0.487466,0.489039
1503,2501610509,-0.603642,0.394146,0.486584,0.493460
1504,2501627176,-0.599692,0.393958,0.487569,0.497436
1505,2501643843,-0.598009,0.394743,0.488379,0.498047
1506,2501660510,-0.597440,0.396526,0.487431,0.498241
1507,2501677177,-0.597215,0.398043,0.486583,0.498129
1508,2501693844,-0.597531,0.397339,0.487861,0.497062
1509,2501710511,-0.598243,0.396375,0.489225,0.495633
1510,2501727178,-0.598553,0.396518,0.489777,0.494598
1511,2501743845,-0.598597,0.396913,0.490152,0.493856
1512,2501760512,-0.598526,0.397289,0.490522,0.493271
1513,2501777179,-0.598281,0.397723,0.491127,0.492617
1514,2501793846,-0.598357,0.397617,0.492242,0.491496
1515,2501810513,-0.598512,0.397726,0.492967,0.490491
1516,2501827180,-0.598332,0.398657,0.492805,0.490118
1517,2501843847,-0.597971,0.399678,0.492576,0.489956
1518,2501860514,-0.597859,0.400029,0.492996,0.489385
1519,2501877181,-0.597924,0.399983,0.493764,0.488568
1520,2501893848,-0.598100,0.399454,0.494983,0.487551
1521,2501910515,-0.598704,0.397806,0.497365,0.485730
1522,2501927182,-0.599619,0.395895,0.499414,0.484057
1523,2501943849,-0.600827,0.393663,0.500983,0.482755
1524,2501960516,-0.602536,0.391080,0.503360,0.480246
1525,2501977183,-0.604773,0.388818,0.505447,0.477068
1526,2501993850,-0.607455,0.385646,0.507954,0.473559
1527,2502010517,-0.609625,0.382194,0.511785,0.469426
1528,2502027184,-0.611767,0.377505,0.517267,0.464400
1529,2502043851,-0.614319,0.370175,0.524763,0.458484
1530,2502060518,-0.616422,0.363289,0.532527,0.452174
1531,2502077185,-0.618216,0.357713,0.539013,0.446448
1532,2502093852,-0.619475,0.356233,0.541634,0.442698
1533,2502110519,-0.620506,0.356783,0.542142,0.440182
1534,2502127186,-0.622203,0.356219,0.542516,0.437776
1535,2502143853,-0.623176,0.358669,0.540432,0.436970
1536,2502160520,-0.623185,0.363264,0.536888,0.437529
1537,2502177187,-0.623467,0.366752,0.533791,0.438007
1538,2502193854,-0.623638,0.369613,0.530927,0.438838
1539,2502210521,-0.623965,0.371056,0.529021,0.439457
1540,2502227188,-0.624344,0.371623,0.527760,0.439956
1541,2502243855,-0.624701,0.371652,0.526729,0.440659
1542,2502260522,-0.625170,0.370941,0.525887,0.441598
1543,2502277189,-0.626104,0.369268,0.525376,0.442284
1544,2502293856,-0.627245,0.367839,0.524398,0.443019
1545,2502310523,-0.628301,0.366795,0.523091,0.443931
1546,2502327190,-0.629484,0.365193,0.522542,0.444223
1547,2502343857,-0.630675,0.363417,0.522729,0.443770
1548,2502360524,-0.631811,0.361772,0.523196,0.442949
1549,2502377191,-0.632838,0.360124,0.523782,0.442132
1550,2502393858,-0.633555,0.357932,0.525614,0.440707
1551,2502410525,-0.634797,0.353901,0.530267,0.436583
1552,2502427192,-0.635952,0.349605,0.535374,0.432107
1553,2502443859,-0.637760,0.344004,0.541369,0.426432
1554,2502460526,-0.639020,0.340551,0.545035,0.422630
1555,2502477193,-0.640481,0.337726,0.546881,0.420294
1556,2502493860,-0.641336,0.335868,0.547965,0.419065
1557,2502510527,-0.640514,0.336570,0.548511,0.419046
1558,2502527194,-0.639292,0.338371,0.548220,0.419840
1559,2502543861,-0.637811,0.341044,0.547449,0.420936
1560,2502560528,-0.635761,0.345396,0.545729,0.422718
1561,2502577195,-0.633140,0.350916,0.543750,0.424651
1562,2502593862,-0.630095,0.357725,0.541163,0.426798
1563,2502610529,-0.627115,0.365194,0.537901,0.428979
1564,2502627196,-0.624556,0.372568,0.534362,0.430791
1565,2502643863,-0.622396,0.379354,0.531167,0.431944
1566,2502660530,-0.620663,0.385787,0.528142,0.432449
1567,2502677197,-0.619701,0.391030,0.525738,0.432049
1568,2502693864,-0.619136,0.394967,0.524169,0.431184
1569,2502710531,-0.618573,0.399344,0.521643,0.431022
1570,2502727198,-0.618086,0.403612,0.518647,0.431362
1571,2502743865,-0.617901,0.406647,0.516415,0.431455
1572,2502760532,-0.618218,0.408248,0.514643,0.431605
1573,2502777199,-0.618617,0.408993,0.513493,0.431699
1574,2502793866,-0.618837,0.409651,0.512984,0.431364
1575,2502810533,-0.618727,0.410908,0.511972,0.431528
1576,2502827200,-0.618545,0.412251,0.510798,0.431899
1577,2502843867,-0.618290,0.413381,0.509852,0.432302
1578,2502860534,-0.617939,0.414135,0.509124,0.432940
1579,2502877201,-0.617595,0.414358,0.508840,0.433552
1580,2502893868,-0.617227,0.414807,0.508140,0.434465
1581,2502910535,-0.616760,0.415810,0.506812,0.435719
1582,2502927202,-0.616585,0.416642,0.505322,0.436901
1583,2502943869,-0.616686,0.417317,0.503863,0.437798
1584,2502960536,-0.616989,0.417652,0.502638,0.438459
1585,2502977203,-0.617438,0.418098,0.501653,0.438532
1586,2502993870,-0.618077,0.418587,0.500600,0.438366
1587,2503010537,-0.618785,0.419602,0.499059,0.438156
1588,2503027204,-0.619424,0.421035,0.497067,0.438142
1589,2503043871,-0.619806,0.422764,0.494961,0.438322
1590,2503060538,-0.620797,0.424175,0.492654,0.438154
1591,2503077205,-0.622657,0.425386,0.489516,0.437857
1592,2503093872,-0.623308,0.427459,0.486673,0.438082
1593,2503110539,-0.623215,0.428723,0.485617,0.438151
1594,2503127206,-0.622126,0.430153,0.484689,0.439323
1595,2503143873,-0.620819,0.431101,0.483950,0.441053
1596,2503160540,-0.619431,0.431430,0.483623,0.443038
1597,2503177207,-0.617613,0.432444,0.483226,0.445016
1598,2503193874,-0.616641,0.432345,0.483383,0.446288
1599,2503210541,-0.616399,0.431799,0.483320,0.447218
1600,2503227208,-0.616852,0.430881,0.482250,0.448631
1601,2503243875,-0.618078,0.429384,0.480769,0.449966
1602,2503260542,-0.619112,0.428847,0.478903,0.451046
1603,2503277209,-0.618640,0.428622,0.478202,0.452648
1604,2503293876,-0.617284,0.428839,0.478661,0.453808
1605,2503310543,-0.615877,0.426306,0.480714,0.455932
1606,2503327210,-0.614690,0.421173,0.485410,0.457325
1607,2503343877,-0.615006,0.413234,0.490319,0.458905
1608,2503360544,-0.614704,0.404659,0.495847,0.461005
1609,2503377211,-0.611608,0.404482,0.497886,0.463077
1610,2503393878,-0.610891,0.404174,0.499975,0.462040
1611,2503410545,-0.610090,0.403912,0.501179,0.462023
1612,2503427212,-0.608251,0.404250,0.501255,0.464066
1613,2503443879,-0.606119,0.403833,0.501639,0.466794
1614,2503460546,-0.604074,0.402757,0.503363,0.468516
1615,2503477213,-0.602370,0.401312,0.506142,0.468956
1616,2503493880,-0.601116,0.398872,0.509651,0.468846
1617,2503510547,-0.600330,0.395080,0.514116,0.468190
1618,2503527214,-0.600129,0.390286,0.519198,0.466858
1619,2503543881,-0.599827,0.386061,0.523603,0.465838
1620,2503560548,-0.599193,0.383433,0.526638,0.465403
1621,2503577215,-0.598581,0.381629,0.528912,0.465094
1622,2503593882,-0.597882,0.380439,0.530848,0.464762
1623,2503610549,-0.596963,0.379800,0.532746,0.464294
1624,2503627216,-0.596130,0.378899,0.535078,0.463418
1625,2503643883,-0.595269,0.377635,0.537909,0.462278
1626,2503660550,-0.594395,0.376117,0.540926,0.461119
1627,2503677217,-0.593742,0.374356,0.543876,0.459921
1628,2503693884,-0.593416,0.372567,0.546541,0.458634
1629,2503710551,-0.593120,0.371286,0.548810,0.457344
1630,2503727218,-0.592805,0.370554,0.550508,0.456304
1631,2503743885,-0.592495,0.370078,0.551868,0.455450
1632,2503760552,-0.592279,0.369504,0.553265,0.454501
1633,2503777219,-0.592244,0.368523,0.554767,0.453511
1634,2503793886,-0.592329,0.367207,0.556314,0.452572
1635,2503810553,-0.592400,0.365794,0.557711,0.451903
1636,2503827220,-0.592530,0.364254,0.558990,0.451396
1637,2503843887,-0.592807,0.362718,0.560266,0.450687
1638,2503860554,-0.593180,0.361215,0.561476,0.449898
1639,2503877221,-0.593459,0.360075,0.562236,0.449493
1640,2503893888,-0.593567,0.359245,0.562791,0.449320
1641,2503910555,-0.593518,0.358590,0.563322,0.449243
1642,2503927222,-0.593552,0.357757,0.563823,0.449233
1643,2503943889,-0.593686,0.356769,0.564396,0.449121
1644,2503960556,-0.593937,0.355523,0.565100,0.448894
1645,2503977223,-0.594103,0.354264,0.565624,0.449009
1646,2503993890,-0.594210,0.352866,0.566152,0.449302
1647,2504010557,-0.594167,0.351678,0.566680,0.449625
1648,2504027224,-0.594054,0.350791,0.567185,0.449830
1649,2504043891,-0.594026,0.350013,0.567536,0.450031
1650,2504060558,-0.593835,0.349570,0.567691,0.450431
1651,2504077225,-0.593498,0.349181,0.568063,0.450708
1652,2504093892,-0.593139,0.348707,0.568619,0.450846
1653,2504110559,-0.592904,0.348094,0.569049,0.451088
1654,2504127226,-0.592565,0.347538,0.569494,0.451400
1655,2504143893,-0.592089,0.346982,0.570220,0.451535
1656,2504160560,-0.591600,0.346510,0.571008,0.451542
1657,2504177227,-0.591174,0.346154,0.571587,0.451641
1658,2504193894,-0.590681,0.345955,0.571994,0.451922
1659,2504210561,-0.590033,0.345730,0.572553,0.452234
1660,2504227228,-0.589369,0.345400,0.573171,0.452569
1661,2504243895,-0.588617,0.345221,0.573783,0.452909
1662,2504260562,-0.587831,0.345457,0.574057,0.453401
1663,2504277229,-0.587045,0.345996,0.574059,0.454007
1664,2504293896,-0.586211,0.346655,0.574022,0.454629
1665,2504310563,-0.585372,0.347146,0.574117,0.455213
1666,2504327230,-0.584481,0.347599,0.574245,0.455852
1667,2504343897,-0.583665,0.347998,0.574239,0.456599
1668,2504360564,-0.582806,0.348570,0.574058,0.457488
1669,2504377231,-0.581833,0.349444,0.573829,0.458345
1670,2504393898,-0.580944,0.350400,0.573421,0.459252
1671,2504410565,-0.579971,0.351494,0.572921,0.460268
1672,2504427232,-0.578924,0.352667,0.572495,0.461219
1673,2504443899,-0.577945,0.353810,0.572079,0.462087
1674,2504460566,-0.577034,0.354880,0.571620,0.462972
1675,2504477233,-0.576149,0.355907,0.571210,0.463792
1676,2504493900,-0.575228,0.356795,0.571029,0.464474
1677,2504510567,-0.574172,0.357824,0.570904,0.465143
1678,2504527234,-0.573003,0.359054,0.570728,0.465851
1679,2504543901,-0.571879,0.360422,0.570380,0.466603
1680,2504560568,-0.570534,0.362083,0.570068,0.467344
1681,2504577235,-0.569073,0.364083,0.569640,0.468091
1682,2504593902,-0.567664,0.366125,0.569160,0.468793
1683,2504610569,-0.566322,0.368146,0.568758,0.469322
1684,2504627236,-0.564960,0.370303,0.568281,0.469845
1685,2504643903,-0.563694,0.372376,0.567791,0.470318
1686,2504660570,-0.562451,0.374378,0.567438,0.470643
1687,2504677237,-0.561330,0.376003,0.567420,0.470708
1688,2504693904,-0.560275,0.377315,0.567619,0.470675
1689,2504710571,-0.559246,0.378385,0.568206,0.470332
1690,2504727238,-0.558310,0.379335,0.569073,0.469629
1691,2504743905,-0.557053,0.380795,0.569843,0.469007
1692,2504760572,-0.555441,0.382875,0.570397,0.468551
1693,2504777239,-0.553583,0.385414,0.571020,0.467909
1694,2504793906,-0.551636,0.388319,0.571545,0.467165
1695,2504810573,-0.549613,0.391507,0.571786,0.466593
1696,2504827240,-0.547326,0.395010,0.571989,0.466080
1697,2504843907,-0.544810,0.398625,0.572462,0.465369
1698,2504860574,-0.542178,0.402167,0.573378,0.464266
1699,2504877241,-0.539444,0.405772,0.574524,0.462895
1700,2504893908,-0.536524,0.409943,0.575474,0.461432
1701,2504910575,-0.533659,0.414524,0.576029,0.459967
1702,2504927242,-0.530649,0.419436,0.576494,0.458411
1703,2504943909,-0.527488,0.424441,0.577246,0.456502
1704,2504960576,-0.524324,0.429461,0.578071,0.454403
1705,2504977243,-0.521010,0.434694,0.578879,0.452205
1706,2504993910,-0.517811,0.439892,0.579717,0.449773
1707,2505010577,-0.514618,0.445125,0.580478,0.447300
1708,2505027244,-0.511620,0.450135,0.581317,0.444629
1709,2505043911,-0.508834,0.454979,0.582056,0.441920
1710,2505060578,-0.505832,0.460000,0.582712,0.439297
1711,2505077245,-0.503075,0.464571,0.583451,0.436663
1712,2505093912,-0.500730,0.468439,0.584514,0.433796
1713,2505110579,-0.498617,0.472026,0.585834,0.430548
1714,2505127246,-0.496829,0.475304,0.587070,0.427313
1715,2505143913,-0.495385,0.478556,0.587866,0.424254
1716,2505160580,-0.493945,0.481919,0.588412,0.421359
1717,2505177247,-0.492518,0.485040,0.589082,0.418503
1718,2505193914,-0.490974,0.488189,0.589752,0.415703
1719,2505210581,-0.489605,0.491226,0.590483,0.412691
1720,2505227248,-0.488379,0.494319,0.591348,0.409198
1721,2505243915,-0.487218,0.497524,0.592142,0.405534
1722,2505260582,-0.486077,0.500738,0.592893,0.401833
1723,2505277249,-0.484874,0.504023,0.593491,0.398279
1724,2505293916,-0.483464,0.507405,0.593932,0.395029
1725,2505310583,-0.482128,0.510706,0.594018,0.392269
1726,2505327250,-0.480849,0.513956,0.593997,0.389617
1727,2505343917,-0.479717,0.516906,0.594151,0.386865
1728,2505360584,-0.478831,0.519622,0.594166,0.384293
1729,2505377251,-0.478253,0.522019,0.594063,0.381916
1730,2505393918,-0.477942,0.523965,0.594076,0.379615
1731,2505410585,-0.478081,0.525315,0.594192,0.377386
1732,2505427252,-0.478597,0.526196,0.594359,0.375235
1733,2505443919,-0.479226,0.526830,0.594554,0.373229
1734,2505460586,-0.479758,0.527266,0.594648,0.371774
1735,2505477253,-0.480294,0.527672,0.594746,0.370349
1736,2505493920,-0.480873,0.528008,0.595046,0.368631
1737,2505510587,-0.481417,0.528428,0.595327,0.366861
1738,2505527254,-0.481869,0.529015,0.595336,0.365405
1739,2505543921,-0.482063,0.529905,0.595168,0.364132
1740,2505560588,-0.482187,0.530924,0.594852,0.362998
1741,2505577255,-0.482482,0.531775,0.594615,0.361745
1742,2505593922,-0.483001,0.532383,0.594362,0.360573
1743,2505610589,-0.483630,0.532829,0.593985,0.359691
1744,2505627256,-0.484259,0.533058,0.593641,0.359074
1745,2505643923,-0.484803,0.533174,0.593372,0.358611
1746,2505660590,-0.485197,0.533164,0.593223,0.358340
1747,2505677257,-0.486012,0.532928,0.593020,0.357920
1748,2505693924,-0.487133,0.532407,0.592893,0.357383
1749,2505710591,-0.488155,0.531942,0.592896,0.356676
1750,2505727258,-0.488834,0.531816,0.592872,0.355973
1751,2505743925,-0.489220,0.531880,0.592873,0.355344
1752,2505760592,-0.489563,0.531747,0.593196,0.354532
1753,2505777259,-0.489985,0.531274,0.593873,0.353522
1754,2505793926,-0.490453,0.530655,0.594624,0.352540
1755,2505810593,-0.491026,0.529950,0.595333,0.351606
1756,2505827260,-0.491602,0.529279,0.595994,0.350689
1757,2505843927,-0.492126,0.528754,0.596539,0.349819
1758,2505860594,-0.492655,0.528323,0.596874,0.349154
1759,2505877261,-0.493223,0.527932,0.597002,0.348724
1760,2505893928,-0.493632,0.527708,0.597024,0.348447
1761,2505910595,-0.493874,0.527607,0.596967,0.348354
1762,2505927262,-0.494073,0.527433,0.596983,0.348307
1763,2505943929,-0.494300,0.527136,0.597040,0.348337
1764,2505960596,-0.494615,0.526739,0.597136,0.348327
1765,2505977263,-0.494942,0.526402,0.597080,0.348468
1766,2505993930,-0.495096,0.526260,0.596847,0.348862
1767,2506010597,-0.495171,0.526241,0.596606,0.349196
1768,2506027264,-0.495190,0.526298,0.596400,0.349434
1769,2506043931,-0.495256,0.526307,0.596253,0.349579
1770,2506060598,-0.495355,0.526292,0.596106,0.349712
1771,2506077265,-0.495360,0.526359,0.595942,0.349883
1772,2506093932,-0.495247,0.526520,0.595752,0.350124
1773,2506110599,-0.495090,0.526629,0.595732,0.350218
1774,2506127266,-0.494961,0.526641,0.595870,0.350146
1775,2506143933,-0.494860,0.526604,0.596053,0.350032
1776,2506160600,-0.494757,0.526621,0.596068,0.350128
1777,2506177267,-0.494764,0.526517,0.596120,0.350187
1778,2506193934,-0.494823,0.526307,0.596259,0.350181
1779,2506210601,-0.494862,0.526081,0.596441,0.350156
1780,2506227268,-0.494871,0.525822,0.596704,0.350084
1781,2506243935,-0.494891,0.525521,0.597021,0.349967
1782,2506260602,-0.495010,0.525130,0.597348,0.349829
1783,2506277269,-0.495155,0.524742,0.597657,0.349677
1784,2506293936,-0.495229,0.524482,0.597889,0.349566
1785,2506310603,-0.495232,0.524352,0.598017,0.349536
1786,2506327270,-0.495151,0.524311,0.598069,0.349626
1787,2506343937,-0.495024,0.524387,0.597988,0.349829
1788,2506360604,-0.494832,0.524585,0.597856,0.350029
1789,2506377271,-0.494564,0.524873,0.597714,0.350218
1790,2506393938,-0.494309,0.525134,0.597619,0.350349
1791,2506410605,-0.494052,0.525397,0.597554,0.350428
1792,2506427272,-0.493867,0.525609,0.597451,0.350547
1793,2506443939,-0.493675,0.525828,0.597343,0.350673
1794,2506460606,-0.493518,0.525993,0.597240,0.350822
1795,2506477273,-0.493406,0.526107,0.597179,0.350913
1796,2506493940,-0.493339,0.526191,0.597122,0.350978
1797,2506510607,-0.493222,0.526340,0.597027,0.351081
1798,2506527274,-0.493135,0.526459,0.596951,0.351154
1799,2506543941,-0.493037,0.526596,0.596885,0.351199
1800,2506560608,-0.492900,0.526788,0.596784,0.351273
1801,2506577275,-0.492773,0.526968,0.596694,0.351336
1802,2506593942,-0.492611,0.527204,0.596548,0.351456
1803,2506610609,-0.492412,0.527494,0.596390,0.351568
1804,2506627276,-0.492258,0.527759,0.596189,0.351727
1805,2506643943,-0.492070,0.528029,0.595988,0.351925
1806,2506660610,-0.491922,0.528213,0.595858,0.352077
1807,2506677277,-0.491785,0.528328,0.595839,0.352128
1808,2506693944,-0.491763,0.528309,0.595907,0.352071
1809,2506710611,-0.491819,0.528227,0.595920,0.352094
1810,2506727278,-0.491921,0.528128,0.595837,0.352241
1811,2506743945,-0.491990,0.528032,0.595802,0.352346
1812,2506760612,-0.492051,0.527904,0.595828,0.352408
1813,2506777279,-0.492183,0.527684,0.595882,0.352463
1814,2506793946,-0.492377,0.527411,0.595969,0.352455
1815,2506810613,-0.492561,0.527153,0.596030,0.352480
1816,2506827280,-0.492687,0.526970,0.596024,0.352588
1817,2506843947,-0.492859,0.526748,0.596036,0.352659
1818,2506860614,-0.492960,0.526564,0.596086,0.352707
1819,2506877281,-0.493109,0.526394,0.596038,0.352834
1820,2506893948,-0.493263,0.526244,0.595960,0.352975
1821,2506910615,-0.493308,0.526171,0.595898,0.353125
1822,2506927282,-0.493337,0.526069,0.595895,0.353241
1823,2506943949,-0.493382,0.525931,0.595984,0.353234
1824,2506960616,-0.493478,0.525750,0.596102,0.353170
1825,2506977283,-0.493588,0.525571,0.596183,0.353145
1826,2506993950,-0.493689,0.525434,0.596152,0.353262
1827,2507010617,-0.493785,0.525311,0.596069,0.353450
1828,2507027284,-0.493895,0.525166,0.595985,0.353653
1829,2507043951,-0.494094,0.524923,0.595917,0.353851
1830,2507060618,-0.494263,0.524681,0.595924,0.353962
1831,2507077285,-0.494410,0.524442,0.595911,0.354131
1832,2507093952,-0.494602,0.524143,0.595950,0.354240
1833,2507110619,-0.494842,0.523781,0.596087,0.354212
1834,2507127286,-0.495132,0.523382,0.596229,0.354157
1835,2507143953,-0.495343,0.523067,0.596335,0.354147
1836,2507160620,-0.495476,0.522825,0.596451,0.354125
1837,2507177287,-0.495551,0.522659,0.596585,0.354038
1838,2507193954,-0.495657,0.522472,0.596678,0.354011
1839,2507210621,-0.495752,0.522309,0.596716,0.354054
1840,2507227288,-0.495861,0.522117,0.596785,0.354068
1841,2507243955,-0.496052,0.521825,0.596913,0.354015
1842,2507260622,-0.496177,0.521537,0.597200,0.353779
1843,2507277289,-0.496256,0.521270,0.597528,0.353509
1844,2507293956,-0.496421,0.520952,0.597842,0.353215
1845,2507310623,-0.496598,0.520616,0.598187,0.352878
1846,2507327290,-0.496647,0.520353,0.598672,0.352374
1847,2507343957,-0.496668,0.520181,0.599125,0.351827
1848,2507360624,-0.496536,0.520240,0.599382,0.351489
1849,2507377291,-0.496271,0.520570,0.599389,0.351363
1850,2507393958,-0.495945,0.520962,0.599400,0.351223
1851,2507410625,-0.495607,0.521330,0.599476,0.351024
1852,2507427292,-0.495318,0.521668,0.599484,0.350917
1853,2507443959,-0.495047,0.522005,0.599422,0.350904
1854,2507460626,-0.494859,0.522260,0.599371,0.350876
1855,2507477293,-0.494820,0.522348,0.599360,0.350820
1856,2507493960,-0.494958,0.522208,0.599444,0.350690
1857,2507510627,-0.495109,0.521977,0.599661,0.350449
1858,2507527294,-0.495271,0.521720,0.599853,0.350274
1859,2507543961,-0.495457,0.521478,0.599918,0.350260
1860,2507560628,-0.495653,0.521224,0.599972,0.350268
1861,2507577295,-0.495829,0.521007,0.600012,0.350274
1862,2507593962,-0.495935,0.520839,0.600094,0.350232
1863,2507610629,-0.496008,0.520707,0.600101,0.350313
1864,2507627296,-0.496052,0.520616,0.600043,0.350486
1865,2507643963,-0.496160,0.520460,0.600004,0.350631
1866,2507660630,-0.496231,0.520307,0.599993,0.350776
1867,2507677297,-0.496338,0.520129,0.599937,0.350986
1868,2507693964,-0.496364,0.520019,0.599890,0.351191
1869,2507710631,-0.496399,0.519907,0.599832,0.351406
1870,2507727298,-0.496543,0.519693,0.599701,0.351744
1871,2507743965,-0.496709,0.519417,0.599577,0.352128
1872,2507760632,-0.496830,0.519147,0.599451,0.352570
1873,2507777299,-0.496995,0.518773,0.599276,0.353184
1874,2507793966,-0.497138,0.518335,0.599137,0.353861
1875,2507810633,-0.497242,0.517910,0.598987,0.354591
1876,2507827300,-0.497338,0.517452,0.598832,0.355385
1877,2507843967,-0.497488,0.516853,0.598718,0.356239
1878,2507860634,-0.497735,0.516044,0.598594,0.357272
1879,2507877301,-0.497978,0.515110,0.598443,0.358535
1880,2507893968,-0.498282,0.513955,0.598338,0.359940
1881,2507910635,-0.498841,0.512443,0.598108,0.361701
1882,2507927302,-0.499679,0.510648,0.597725,0.363710
1883,2507943969,-0.500799,0.508574,0.597265,0.365825
1884,2507960636,-0.502382,0.505914,0.596793,0.368107
1885,2507977303,-0.504639,0.502513,0.596327,0.370424
1886,2507993970,-0.507437,0.498548,0.595737,0.372903
1887,2508010637,-0.510616,0.494146,0.595113,0.375409
1888,2508027304,-0.514043,0.489405,0.594552,0.377825
1889,2508043971,-0.517368,0.484620,0.594005,0.380304
1890,2508060638,-0.520398,0.480038,0.593457,0.382829
1891,2508077305,-0.523369,0.475411,0.593227,0.384905
1892,2508093972,-0.526226,0.470915,0.593089,0.386744
1893,2508110639,-0.528403,0.467181,0.592829,0.388698
1894,2508127306,-0.530002,0.464328,0.592312,0.390723
1895,2508143973,-0.530933,0.462642,0.591175,0.393173
1896,2508160640,-0.531165,0.462180,0.589319,0.396179
1897,2508177307,-0.530912,0.462856,0.586604,0.399742
1898,2508193974,-0.530411,0.464282,0.583111,0.403842
1899,2508210641,-0.529644,0.465972,0.579557,0.407997
1900,2508227308,-0.528644,0.467694,0.576179,0.412088
1901,2508243975,-0.527880,0.468791,0.573042,0.416175
1902,2508260642,-0.527576,0.468890,0.570098,0.420470
1903,2508277309,-0.527687,0.468201,0.567212,0.424977
1904,2508293976,-0.528119,0.466893,0.564435,0.429553
1905,2508310643,-0.528880,0.464904,0.562032,0.433901
1906,2508327310,-0.529442,0.463232,0.559888,0.437759
1907,2508343977,-0.529378,0.462714,0.557063,0.441969
1908,2508360644,-0.528900,0.463033,0.553174,0.447062
1909,2508377311,-0.528636,0.463279,0.548616,0.452700
1910,2508393978,-0.529249,0.462246,0.544281,0.458239
1911,2508410645,-0.530460,0.459754,0.541387,0.462752
1912,2508427312,-0.532132,0.456241,0.539663,0.466309
1913,2508443979,-0.533884,0.452469,0.538237,0.469618
1914,2508460646,-0.536347,0.447863,0.536515,0.473183
1915,2508477313,-0.539589,0.442821,0.533665,0.477447
1916,2508493980,-0.543646,0.437374,0.529761,0.482190
1917,2508510647,-0.548489,0.431193,0.525714,0.486680
1918,2508527314,-0.553655,0.423757,0.522902,0.490379
1919,2508543981,-0.558771,0.415548,0.520417,0.494228
1920,2508560648,-0.563121,0.407791,0.517550,0.498743
1921,2508577315,-0.566346,0.402705,0.513788,0.503094
1922,2508593982,-0.568737,0.400341,0.508230,0.507906
1923,2508610649,-0.570779,0.399725,0.501968,0.512308
1924,2508627316,-0.573325,0.399580,0.494822,0.516513
1925,2508643983,-0.576217,0.398784,0.488512,0.519906
1926,2508660650,-0.579988,0.395832,0.483958,0.522222
1927,2508677317,-0.583680,0.391535,0.480636,0.524413
1928,2508693984,-0.586730,0.386974,0.478361,0.526471
1929,2508710651,-0.589311,0.382906,0.476246,0.528475
1930,2508727318,-0.591490,0.380039,0.473595,0.530489
1931,2508743985,-0.593830,0.378209,0.470059,0.532324
1932,2508760652,-0.596355,0.377577,0.465137,0.534270
1933,2508777319,-0.599521,0.376570,0.460242,0.535675
1934,2508793986,-0.602992,0.374279,0.456389,0.536680
1935,2508810653,-0.606030,0.371069,0.453675,0.537787
1936,2508827320,-0.608320,0.368091,0.451550,0.539035
1937,2508843987,-0.610157,0.365747,0.449571,0.540207
1938,2508860654,-0.611533,0.364346,0.447333,0.541455
1939,2508877321,-0.612676,0.363609,0.444930,0.542636
1940,2508893988,-0.613868,0.363070,0.442484,0.543650
1941,2508910655,-0.615327,0.362419,0.440463,0.544076
1942,2508927322,-0.617211,0.361039,0.439335,0.543771
1943,2508943989,-0.618881,0.358807,0.439205,0.543454
1944,2508960656,-0.619904,0.355942,0.440092,0.543455
1945,2508977323,-0.620378,0.353517,0.441405,0.543432
1946,2508993990,-0.620428,0.352496,0.442144,0.543438
1947,2509010657,-0.620343,0.352693,0.442209,0.543354
1948,2509027324,-0.620371,0.353956,0.441423,0.543140
1949,2509043991,-0.620458,0.356214,0.439987,0.542729
1950,2509060658,-0.620548,0.358253,0.438511,0.542480
1951,2509077325,-0.620688,0.359190,0.437714,0.542343
1952,2509093992,-0.620919,0.359155,0.437737,0.542083
1953,2509110659,-0.621281,0.358595,0.438281,0.541599
1954,2509127326,-0.621690,0.357922,0.439032,0.540967
1955,2509143993,-0.622153,0.357422,0.439644,0.540267
1956,2509160660,-0.622579,0.357252,0.439997,0.539602
1957,2509177327,-0.623092,0.357111,0.440194,0.538941
1958,2509193994,-0.623611,0.356991,0.440409,0.538245
1959,2509210661,-0.623884,0.356916,0.440726,0.537718
1960,2509227328,-0.624047,0.356766,0.441236,0.537210
1961,2509243995,-0.624187,0.356696,0.441636,0.536764
1962,2509260662,-0.624326,0.356807,0.441853,0.536351
1963,2509277329,-0.624531,0.356859,0.442053,0.535913
1964,2509293996,-0.624785,0.356856,0.442232,0.535470
1965,2509310663,-0.625137,0.356758,0.442447,0.534948
1966,2509327330,-0.625703,0.356384,0.442743,0.534290
1967,2509343997,-0.626379,0.355716,0.443314,0.533468
1968,2509360664,-0.626974,0.354933,0.444080,0.532654
1969,2509377331,-0.627602,0.354089,0.444913,0.531781
1970,2509393998,-0.628055,0.353477,0.445458,0.531196
1971,2509410665,-0.628150,0.353129,0.445753,0.531068
1972,2509427332,-0.627994,0.352836,0.446035,0.531210
1973,2509443999,-0.627789,0.352090,0.446606,0.531466
1974,2509460666,-0.627807,0.350605,0.447187,0.531939
1975,2509477333,-0.628232,0.349398,0.447737,0.531769
1976,2509494000,-0.629026,0.349483,0.447734,0.530775
1977,2509510667,-0.630053,0.349866,0.447538,0.529469
1978,2509527334,-0.631193,0.349935,0.447477,0.528115
1979,2509544001,-0.632231,0.349585,0.447540,0.527051
1980,2509560668,-0.633156,0.348859,0.447863,0.526146
1981,2509577335,-0.634064,0.348024,0.448211,0.525309
1982,2509594002,-0.634947,0.347407,0.448437,0.524458
1983,2509610669,-0.635631,0.347092,0.448454,0.523823
1984,2509627336,-0.636063,0.346856,0.448622,0.523310
1985,2509644003,-0.636492,0.346597,0.448834,0.522779
1986,2509660670,-0.636950,0.346341,0.448972,0.522270
1987,2509677337,-0.637409,0.346003,0.449124,0.521805
1988,2509694004,-0.637841,0.345591,0.449360,0.521347
1989,2509710671,-0.638258,0.345320,0.449667,0.520751
1990,2509727338,-0.638695,0.345169,0.449915,0.520101
1991,2509744005,-0.639058,0.345190,0.450036,0.519535
1992,2509760672,-0.639426,0.345148,0.450163,0.518999
1993,2509777339,-0.639757,0.344978,0.450428,0.518476
1994,2509794006,-0.640019,0.344652,0.450728,0.518107
1995,2509810673,-0.640259,0.344195,0.451088,0.517802
1996,2509827340,-0.640469,0.343761,0.451411,0.517549
1997,2509844007,-0.640633,0.343467,0.451652,0.517330
1998,2509860674,-0.640679,0.343496,0.451664,0.517243
1999,2509877341,-0.640655,0.343699,0.451561,0.517230
2000,2509894008,-0.640602,0.343875,0.451444,0.517280
2001,2509910675,-0.640449,0.344215,0.451249,0.517413
2002,2509927342,-0.640230,0.344592,0.451111,0.517554
2003,2509944009,-0.640095,0.344916,0.451011,0.517591
2004,2509960676,-0.640004,0.345168,0.450947,0.517592
2005,2509977343,-0.639983,0.345241,0.450935,0.517580
2006,2509994010,-0.640018,0.345188,0.451006,0.517510
2007,2510010677,-0.640109,0.345194,0.451051,0.517355
2008,2510027344,-0.640288,0.345130,0.451073,0.517156
2009,2510044011,-0.640405,0.345004,0.451173,0.517007
2010,2510060678,-0.640574,0.344679,0.451344,0.516867
2011,2510077345,-0.640671,0.344345,0.451466,0.516863
2012,2510094012,-0.640640,0.344123,0.451683,0.516859
2013,2510110679,-0.640541,0.344094,0.451754,0.516939
2014,2510127346,-0.640465,0.344056,0.451745,0.517065
2015,2510144013,-0.640270,0.344207,0.451559,0.517370
2016,2510160680,-0.640049,0.344377,0.451386,0.517681
2017,2510177347,-0.639983,0.344470,0.451218,0.517848
2018,2510194014,-0.639915,0.344410,0.451189,0.517996
2019,2510210681,-0.639740,0.344399,0.451217,0.518195
2020,2510227348,-0.639617,0.344371,0.451230,0.518354
2021,2510244015,-0.639655,0.344243,0.451323,0.518311
2022,2510260682,-0.639854,0.343877,0.451536,0.518123
2023,2510277349,-0.640087,0.343319,0.451960,0.517836
2024,2510294016,-0.640120,0.342934,0.452435,0.517634
2025,2510310683,-0.639953,0.342861,0.452731,0.517631
2026,2510327350,-0.639645,0.343096,0.452828,0.517771
2027,2510344017,-0.639304,0.343392,0.452800,0.518020
2028,2510360684,-0.639052,0.343859,0.452469,0.518311
2029,2510377351,-0.639075,0.344107,0.452231,0.518325
2030,2510394018,-0.639162,0.344126,0.452294,0.518152
2031,2510410685,-0.639437,0.343540,0.452588,0.517944
2032,2510427352,-0.639851,0.342475,0.453189,0.517611
2033,2510444019,-0.640450,0.340941,0.454088,0.517096
2034,2510460686,-0.641035,0.339356,0.455077,0.516543
2035,2510477353,-0.641497,0.338041,0.456002,0.516017
2036,2510494020,-0.641855,0.337188,0.456557,0.515638
2037,2510510687,-0.642181,0.336600,0.456707,0.515484
2038,2510527354,-0.642393,0.336079,0.456795,0.515482
2039,2510544021,-0.642428,0.335617,0.456952,0.515600
2040,2510560688,-0.642295,0.335337,0.457220,0.515710
2041,2510577355,-0.642117,0.335564,0.457154,0.515842
2042,2510594022,-0.642024,0.336278,0.456628,0.515959
2043,2510610689,-0.641955,0.337080,0.456053,0.516031
2044,2510627356,-0.641988,0.337250,0.456069,0.515863
2045,2510644023,-0.642197,0.336857,0.456538,0.515445
2046,2510660690,-0.642544,0.336255,0.457155,0.514859
2047,2510677357,-0.642851,0.335626,0.457823,0.514292
2048,2510694024,-0.642934,0.334995,0.458703,0.513815
2049,2510710691,-0.642760,0.334600,0.459640,0.513454
2050,2510727358,-0.642284,0.334887,0.460237,0.513327
2051,2510744025,-0.641361,0.336070,0.460285,0.513664
2052,2510760692,-0.640049,0.337825,0.460113,0.514304
2053,2510777359,-0.638822,0.339635,0.459874,0.514850
2054,2510794026,-0.637812,0.341408,0.459576,0.515195
2055,2510810693,-0.636995,0.343133,0.459367,0.515247
2056,2510827360,-0.636467,0.344509,0.459456,0.514902
2057,2510844027,-0.636212,0.345480,0.459915,0.514156
2058,2510860694,-0.636319,0.345582,0.460748,0.513208
2059,2510877361,-0.636687,0.344636,0.462148,0.512128
2060,2510894028,-0.637002,0.343239,0.463720,0.511253
2061,2510910695,-0.637176,0.341986,0.464990,0.510721
2062,2510927362,-0.637195,0.341247,0.465843,0.510416
2063,2510944029,-0.637180,0.341311,0.466127,0.510132
2064,2510960696,-0.637067,0.342240,0.465625,0.510109
2065,2510977363,-0.636868,0.343263,0.464969,0.510269
2066,2510994030,-0.636702,0.343743,0.464624,0.510467
2067,2511010697,-0.636730,0.343584,0.464666,0.510500
2068,2511027364,-0.636898,0.343118,0.464945,0.510351
2069,2511044031,-0.637184,0.342481,0.465358,0.510045
2070,2511060698,-0.637468,0.341938,0.465631,0.509805
2071,2511077365,-0.637666,0.341465,0.466039,0.509501
2072,2511094032,-0.637790,0.341170,0.466453,0.509165
2073,2511110699,-0.637939,0.341160,0.466675,0.508781
2074,2511127366,-0.638113,0.341281,0.466836,0.508334
2075,2511144033,-0.638465,0.341125,0.467104,0.507751
2076,2511160700,-0.638853,0.340705,0.467568,0.507117
2077,2511177367,-0.639069,0.340247,0.468195,0.506573
2078,2511194034,-0.639335,0.339518,0.468981,0.506000
2079,2511210701,-0.639720,0.338764,0.469604,0.505441
2080,2511227368,-0.640174,0.338174,0.470081,0.504817
2081,2511244035,-0.640629,0.337571,0.470624,0.504137
2082,2511260702,-0.640982,0.336957,0.471125,0.503630
2083,2511277369,-0.641300,0.336249,0.471600,0.503254
2084,2511294036,-0.641561,0.335581,0.472194,0.502811
2085,2511310703,-0.641644,0.335139,0.472768,0.502460
2086,2511327370,-0.641509,0.334991,0.473328,0.502204
2087,2511344037,-0.641350,0.334930,0.473784,0.502017
2088,2511360704,-0.641180,0.335070,0.474020,0.501918
2089,2511377371,-0.641128,0.335188,0.474090,0.501840
2090,2511394038,-0.641054,0.335436,0.473903,0.501944
2091,2511410705,-0.640593,0.336083,0.473737,0.502258
2092,2511427372,-0.640196,0.336488,0.473999,0.502244
2093,2511444039,-0.639937,0.336705,0.474273,0.502172
2094,2511460706,-0.639672,0.336985,0.474554,0.502055
2095,2511477373,-0.639331,0.337210,0.474832,0.502076
2096,2511494040,-0.639048,0.337093,0.475332,0.502041
2097,2511510707,-0.638875,0.336970,0.475666,0.502028
2098,2511527374,-0.638618,0.337072,0.475699,0.502255
2099,2511544041,-0.638300,0.337276,0.475789,0.502437
2100,2511560708,-0.637898,0.337710,0.475926,0.502528
2101,2511577375,-0.637578,0.338110,0.476241,0.502365
2102,2511594042,-0.637308,0.338564,0.476577,0.502083
2103,2511610709,-0.637309,0.338791,0.476841,0.501678
2104,2511627376,-0.637432,0.338779,0.477020,0.501360
2105,2511644043,-0.637477,0.338666,0.477365,0.501050
2106,2511660710,-0.637610,0.338404,0.477722,0.500718
2107,2511677377,-0.637785,0.338033,0.478066,0.500417
2108,2511694044,-0.637952,0.337593,0.478550,0.500039
2109,2511710711,-0.638366,0.336989,0.478943,0.499542
2110,2511727378,-0.638757,0.336615,0.479210,0.499037
2111,2511744045,-0.639175,0.336188,0.479547,0.498466
2112,2511760712,-0.639471,0.335842,0.479986,0.497896
2113,2511777379,-0.639850,0.335341,0.480421,0.497327
2114,2511794046,-0.640282,0.334632,0.481077,0.496614
2115,2511810713,-0.640832,0.333827,0.481619,0.495921
2116,2511827380,-0.641276,0.333153,0.482141,0.495293
2117,2511844047,-0.641616,0.332572,0.482534,0.494860
2118,2511860714,-0.641842,0.332189,0.482837,0.494529
2119,2511877381,-0.641899,0.332121,0.483062,0.494281
2120,2511894048,-0.641947,0.332063,0.483277,0.494047
2121,2511910715,-0.641985,0.332084,0.483400,0.493862
2122,2511927382,-0.642003,0.332269,0.483327,0.493787
2123,2511944049,-0.642071,0.332276,0.483423,0.493599
2124,2511960716,-0.642043,0.332148,0.483692,0.493458
2125,2511977383,-0.641974,0.332093,0.483886,0.493395
2126,2511994050,-0.641844,0.332229,0.483984,0.493376
2127,2512010717,-0.641776,0.332449,0.483836,0.493462
2128,2512027384,-0.641669,0.332640,0.483716,0.493590
2129,2512044051,-0.641533,0.332877,0.483517,0.493801
2130,2512060718,-0.641605,0.332797,0.483449,0.493828
2131,2512077385,-0.641739,0.332527,0.483702,0.493589
2132,2512094052,-0.641830,0.332235,0.484034,0.493342
2133,2512110719,-0.641970,0.331970,0.484351,0.493027
2134,2512127386,-0.642241,0.331858,0.484468,0.492633
2135,2512144053,-0.642464,0.331809,0.484508,0.492337
2136,2512160720,-0.642719,0.331702,0.484573,0.492012
2137,2512177387,-0.643059,0.331640,0.484557,0.491625
2138,2512194054,-0.643458,0.331423,0.484625,0.491181
2139,2512210721,-0.643838,0.331043,0.484802,0.490766
2140,2512227388,-0.644240,0.330605,0.484839,0.490496
2141,2512244055,-0.644744,0.329869,0.484962,0.490208
2142,2512260722,-0.645274,0.328904,0.485300,0.489825
2143,2512277389,-0.645919,0.327702,0.485761,0.489323
2144,2512294056,-0.646587,0.326681,0.486078,0.488808
2145,2512310723,-0.647420,0.325774,0.486256,0.488134
2146,2512327390,-0.648406,0.324773,0.486379,0.487369
2147,2512344057,-0.649314,0.323572,0.486854,0.486483
2148,2512360724,-0.650161,0.322243,0.487634,0.485451
2149,2512377391,-0.650954,0.320989,0.488436,0.484412
2150,2512394058,-0.651680,0.319859,0.489251,0.483361
2151,2512410725,-0.652168,0.318728,0.490117,0.482572
2152,2512427392,-0.652439,0.317673,0.491002,0.482001
2153,2512444059,-0.652556,0.317130,0.491573,0.481618
2154,2512460726,-0.652526,0.317526,0.491529,0.481443
2155,2512477393,-0.652276,0.318587,0.491095,0.481523
2156,2512494060,-0.652172,0.319431,0.490709,0.481498
2157,2512510727,-0.652191,0.320098,0.490409,0.481335
2158,2512527394,-0.652436,0.320350,0.490294,0.480952
2159,2512544061,-0.652751,0.320066,0.490730,0.480269
2160,2512560728,-0.653275,0.319141,0.491631,0.479250
2161,2512577395,-0.653835,0.317996,0.492739,0.478107
2162,2512594062,-0.654372,0.316781,0.493859,0.477023
2163,2512610729,-0.654831,0.315621,0.495004,0.475974
2164,2512627396,-0.655240,0.314570,0.495980,0.475090
2165,2512644063,-0.655416,0.313938,0.496679,0.474535
2166,2512660730,-0.655479,0.313721,0.497036,0.474218
2167,2512677397,-0.655551,0.313732,0.497130,0.474011
2168,2512694064,-0.655587,0.313984,0.497134,0.473791
2169,2512710731,-0.655606,0.314335,0.497069,0.473600
2170,2512727398,-0.655679,0.314603,0.497120,0.473268
2171,2512744065,-0.655806,0.314715,0.497397,0.472727
2172,2512760732,-0.655956,0.314536,0.497864,0.472145
2173,2512777399,-0.656096,0.314368,0.498278,0.471625
2174,2512794066,-0.656211,0.314367,0.498609,0.471116
2175,2512810733,-0.656314,0.314500,0.498856,0.470621
2176,2512827400,-0.656438,0.314671,0.498967,0.470216
2177,2512844067,-0.656629,0.314642,0.499014,0.469919
2178,2512860734,-0.656841,0.314397,0.499165,0.469626
2179,2512877401,-0.657068,0.313948,0.499394,0.469366
2180,2512894068,-0.657314,0.313598,0.499643,0.468990
2181,2512910735,-0.657529,0.313489,0.499739,0.468660
2182,2512927402,-0.657789,0.313366,0.499822,0.468288
2183,2512944069,-0.658115,0.313203,0.499944,0.467809
2184,2512960736,-0.658540,0.312887,0.500134,0.467218
2185,2512977403,-0.659052,0.312442,0.500332,0.466582
2186,2512994070,-0.659559,0.311981,0.500362,0.466141
2187,2513010737,-0.659930,0.311611,0.500447,0.465773
2188,2513027404,-0.660353,0.311009,0.500694,0.465310
2189,2513044071,-0.660829,0.310256,0.501009,0.464797
2190,2513060738,-0.661145,0.309462,0.501389,0.464468
2191,2513077405,-0.661259,0.308806,0.501821,0.464275
2192,2513094072,-0.661325,0.308420,0.502090,0.464147
2193,2513110739,-0.661347,0.308425,0.501988,0.464222
2194,2513127406,-0.661313,0.308545,0.501570,0.464643
2195,2513144073,-0.661188,0.308777,0.501112,0.465161
2196,2513160740,-0.661165,0.309000,0.500590,0.465608
2197,2513177407,-0.661148,0.309339,0.500080,0.465954
2198,2513194074,-0.661076,0.309585,0.499683,0.466319
2199,2513210741,-0.660982,0.309712,0.499390,0.466680
2200,2513227408,-0.660893,0.309714,0.499291,0.466912
2201,2513244075,-0.660907,0.309671,0.499329,0.466879
2202,2513260742,-0.660851,0.310005,0.499186,0.466891
2203,2513277409,-0.660791,0.310340,0.499111,0.466834
2204,2513294076,-0.660684,0.310474,0.499307,0.466686
2205,2513310743,-0.660465,0.310667,0.499631,0.466520
2206,2513327410,-0.660268,0.310995,0.499862,0.466333
2207,2513344077,-0.660134,0.311406,0.499839,0.466275
2208,2513360744,-0.660001,0.311771,0.499836,0.466222
2209,2513377411,-0.659817,0.312140,0.499726,0.466353
2210,2513394078,-0.659720,0.312323,0.499619,0.466482
2211,2513410745,-0.659730,0.312343,0.499497,0.466584
2212,2513427412,-0.659699,0.312293,0.499400,0.466766
2213,2513444079,-0.659651,0.312284,0.499194,0.467060
2214,2513460746,-0.659605,0.312424,0.498888,0.467358
2215,2513477413,-0.659762,0.312582,0.498735,0.467195
2216,2513494080,-0.660070,0.312694,0.498568,0.466862
2217,2513510747,-0.660414,0.312300,0.498776,0.466417
2218,2513527414,-0.660551,0.311700,0.499219,0.466150
2219,2513544081,-0.660540,0.311146,0.499709,0.466012
2220,2513560748,-0.660471,0.310894,0.500075,0.465886
2221,2513577415,-0.660482,0.311007,0.500194,0.465667
2222,2513594082,-0.660495,0.311507,0.499953,0.465571
2223,2513610749,-0.660469,0.312007,0.499784,0.465454
2224,2513627416,-0.660315,0.312377,0.499857,0.465348
2225,2513644083,-0.660259,0.312353,0.500160,0.465117
2226,2513660750,-0.660319,0.312160,0.500596,0.464692
2227,2513677417,-0.660578,0.311771,0.501239,0.463892
2228,2513694084,-0.661041,0.311102,0.501976,0.462882
2229,2513710751,-0.661517,0.310557,0.502624,0.461866
2230,2513727418,-0.661825,0.310183,0.503174,0.461076
2231,2513744085,-0.662160,0.309737,0.503732,0.460285
2232,2513760752,-0.662551,0.309190,0.504315,0.459451
2233,2513777419,-0.662705,0.308718,0.504887,0.458918
2234,2513794086,-0.662507,0.308298,0.505577,0.458726
2235,2513810753,-0.662130,0.307975,0.506251,0.458743
2236,2513827420,-0.661528,0.308272,0.506530,0.459104
2237,2513844087,-0.660818,0.308991,0.506541,0.459632
2238,2513860754,-0.660023,0.309974,0.506374,0.460296
2239,2513877421,-0.659110,0.311171,0.506019,0.461186
2240,2513894088,-0.658145,0.312493,0.505473,0.462268
2241,2513910755,-0.657164,0.313835,0.504836,0.463448
2242,2513927422,-0.656211,0.315050,0.504212,0.464651
2243,2513944089,-0.655287,0.316132,0.503534,0.465955
2244,2513960756,-0.654445,0.317078,0.502821,0.467263
2245,2513977423,-0.653665,0.318018,0.502036,0.468558
2246,2513994090,-0.652912,0.319129,0.501132,0.469819
2247,2514010757,-0.651879,0.320400,0.500209,0.471370
2248,2514027424,-0.650742,0.321513,0.499292,0.473151
2249,2514044091,-0.649832,0.322364,0.498612,0.474538
2250,2514060758,-0.648986,0.323811,0.497499,0.475877
2251,2514077425,-0.648238,0.325310,0.496323,0.477101
2252,2514094092,-0.647569,0.326641,0.495413,0.478044
2253,2514110759,-0.647022,0.327504,0.494830,0.478798
2254,2514127426,-0.646516,0.328040,0.494474,0.479482
2255,2514144093,-0.645984,0.328513,0.494250,0.480105
2256,2514160760,-0.645122,0.329499,0.493848,0.481002
2257,2514177427,-0.643906,0.331371,0.492893,0.482324
2258,2514194094,-0.642262,0.333964,0.491730,0.483911
2259,2514210761,-0.640241,0.336880,0.490671,0.485640
2260,2514227428,-0.637736,0.340094,0.489721,0.487650
2261,2514244095,-0.634986,0.343531,0.488720,0.489830
2262,2514260762,-0.631948,0.347438,0.487480,0.492232
2263,2514277429,-0.628616,0.351743,0.485907,0.494988
2264,2514294096,-0.625258,0.356106,0.484209,0.497779
2265,2514310763,-0.622285,0.360025,0.482490,0.500347
2266,2514327430,-0.619653,0.363445,0.480964,0.502605
2267,2514344097,-0.617495,0.366163,0.479802,0.504395
2268,2514360764,-0.615826,0.368072,0.479249,0.505572
2269,2514377431,-0.614423,0.369483,0.479064,0.506425
2270,2514394098,-0.612998,0.370826,0.478870,0.507352
2271,2514410765,-0.611428,0.372195,0.478988,0.508131
2272,2514427432,-0.609994,0.373523,0.479103,0.508772
2273,2514444099,-0.608736,0.374836,0.479138,0.509279
2274,2514460766,-0.607356,0.376258,0.479129,0.509887
2275,2514477433,-0.605860,0.377707,0.478986,0.510729
2276,2514494100,-0.604183,0.379427,0.478419,0.511970
2277,2514510767,-0.602251,0.381702,0.477335,0.513565
2278,2514527434,-0.600448,0.383961,0.476095,0.515141
2279,2514544101,-0.599058,0.385873,0.474941,0.516395
2280,2514560768,-0.597978,0.387553,0.473597,0.517621
2281,2514577435,-0.596934,0.388898,0.472349,0.518957
