// Start Time: Unknown
// Update Rate: 225.0Hz
// Filter Profile: human (46.1)
// Option Flags: AHS Disabled ICC Disabled 
// Firmware Version: 4.0.2
PacketCounter	SampleTimeFine	Mat[1][1]	Mat[2][1]	Mat[3][1]	Mat[1][2]	Mat[2][2]	Mat[3][2]	Mat[1][3]	Mat[2][3]	Mat[3][3]
29251	132.9672530763889	0.16951771780305552	0.025597677316895648	0.9851946519682413	-0.11789729671646554	-0.9919570348013467	0.04605940224395083	0.9784497793846108	-0.12395967095834226	-0.16513639574032796
29252	132.97167927083333	0.16953773657729532	0.025572559608962	0.9851918595234606	-0.11801341554430345	-0.9919433724313682	0.04605626603461843	0.9784323122361687	-0.12407413140751822	-0.16515392907119936
29253	132.97610546527778	0.1695845386433098	0.025578889744219818	0.9851836400654393	-0.11813162054481641	-0.9919278016339239	0.04608857312986209	0.9784099368263752	-0.12419724934612753	-0.16519394291033962
29254	132.98053165972223	0.16962268167431213	0.02557716516940818	0.9851771183312734	-0.11825056892201008	-0.9919125490185496	0.04611179945680083	0.9783889557896879	-0.12431936181231013	-0.16522635221823428
29255	132.98495785416668	0.16962227581343478	0.025584013723061655	0.9851770103842706	-0.11839515045377585	-0.9918938483909864	0.046143058775364176	0.978371540825314	-0.12446707101051724	-0.16521826877547174
29256	132.9893840486111	0.16963318717014214	0.025586328897346813	0.9851750715401076	-0.11854058401929823	-0.9918751617783519	0.04617134812339968	0.9783520387625628	-0.12461542127973269	-0.16522192659696078
29257	132.99383386805556	0.1696829147839544	0.02562008652315982	0.9851656305398434	-0.11857184838816692	-0.9918692989647957	0.04621699407034657	0.978339626714688	-0.1246551440480122	-0.1652654527181482
29258	132.9982600625	0.16967573620330204	0.025649828250191173	0.9851660930292938	-0.11868231286282843	-0.9918538644225485	0.046264675980563386	0.9783274774621212	-0.12477178343196232	-0.16524935371071908
29259	133.00268625694446	0.16967076628045744	0.025617544882433688	0.9851677889902812	-0.11878308576202995	-0.9918425528000903	0.04624855664613525	0.978316109244171	-0.12486829801513694	-0.16524375493237364
29260	133.00711245138888	0.1695891048613909	0.02563799211525583	0.9851813177647101	-0.11887160938513913	-0.9918307794447689	0.0462735932057326	0.9783195163107498	-0.12495758602934359	-0.16515606467586996
29261	133.01153864583335	0.16958182740923244	0.02567616373976392	0.9851815763747082	-0.11892158505311373	-0.9918226446448912	0.04631952264509376	0.9783147041831688	-0.12501430392248386	-0.16514164645472235
29262	133.01596484027777	0.16954859068479905	0.025625233262400557	0.9851886229636667	-0.11901541013835842	-0.99181324425312	0.04627980848814367	0.9783090552307061	-0.1250993043319924	-0.16511074013901922
29263	133.0204023159722	0.1694583988909572	0.0256096926107265	0.9852045445945209	-0.11907041717694167	-0.9918074806479331	0.04626183182828669	0.9783179885899176	-0.1251481720808726	-0.16502075089574025
29264	133.02483979166666	0.16936820482431197	0.025594156459398762	0.9852204577401558	-0.1191254222509231	-0.9918017141049307	0.046243850099887684	0.9783269110926722	-0.12519704091412648	-0.1649307611642455
29265	133.0292659861111	0.169325782113881	0.025618114486067822	0.9852271269721015	-0.11910340695676402	-0.9918036612976341	0.0462587925469255	0.9783369347841335	-0.12517671367625355	-0.1648867259375335
29266	133.03369218055556	0.16923829535987345	0.025632518927778417	0.9852417842119271	-0.11910932958229747	-0.9918027527512042	0.046263022400072074	0.9783513515042233	-0.12518096344313312	-0.1647979350638505
29267	133.03811837499998	0.16917457166154598	0.02559530599925748	0.9852536955596446	-0.11915050115547599	-0.9917996135134794	0.04622428700273973	0.9783573592392155	-0.12521344554526526	-0.16473758125319043
29268	133.04254456944446	0.16909875118328244	0.025608398551154363	0.9852663712275477	-0.11922993322514647	-0.9917892854643848	0.0462410668256259	0.9783607899805582	-0.12529255030403896	-0.16465704195973035
29269	133.04697076388888	0.1690200183528594	0.025627556174855168	0.9852793825918129	-0.11927456302259798	-0.9917831431145832	0.04625770908212945	0.9783689549509262	-0.12533724665183643	-0.1645744894871905
29270	133.05140823958334	0.16896728128245136	0.02562915301805234	0.9852883863984161	-0.11933231868168515	-0.9917759847782892	0.046262227952269974	0.9783710214300452	-0.1253935506022233	-0.16451930553372146
29271	133.05584571527777	0.16891454380614074	0.025630752897695078	0.9852973872880515	-0.11939007419050007	-0.9917688231762735	0.046266743567453805	0.9783730817410863	-0.12544985405111847	-0.16446412083795908
29272	133.0602719097222	0.16879033140118566	0.02566227860947476	0.9853178530210686	-0.11937397977759945	-0.9917701540532734	0.046279741585318834	0.9783964825046825	-0.1254328863803918	-0.1643378046486823
29273	133.06469810416667	0.16877047143882856	0.025658562602789522	0.9853213517099253	-0.11930378147906151	-0.991779445021012	0.046261648896356256	0.9784084707805386	-0.12536016352483015	-0.16432192095370585
29274	133.0691242986111	0.16880576897476704	0.025633624549038656	0.9853159542265193	-0.1193297492004533	-0.9917770758709463	0.04624546175174621	0.9783992146954098	-0.1253840064336526	-0.16435883795540557
29275	133.07355049305556	0.1688000841488338	0.025607619017903732	0.9853176043487606	-0.11937730781636718	-0.9917722345570859	0.04622654151200456	0.9783943938769595	-0.12542760704836353	-0.1643542680317684
29276	133.07797668749998	0.16879654914742742	0.025622823469862416	0.9853178146736982	-0.11942870332711908	-0.9917649521046277	0.04625002268657297	0.9783887314444719	-0.12548207319907417	-0.16434640089803937
29277	133.08241416319444	0.16878360673481418	0.02559375864869741	0.9853207871631553	-0.11941482869405562	-0.9917681731043613	0.04621676649449874	0.9783926577737372	-0.1254625455483424	-0.16433793499668048
29278	133.0868516388889	0.16877066470818758	0.025564693543685915	0.9853237585575485	-0.11940095358980257	-0.9917713928376646	0.046183510376375525	0.9783965837102062	-0.1254430181112381	-0.16432946842043045
29279	133.09127783333332	0.16870305860230184	0.025580590964100952	0.985334923457073	-0.11944483033361913	-0.9917654274721542	0.04619815339976591	0.9784028876310624	-0.1254869325344386	-0.16425839168303097
29280	133.0957040277778	0.16873281063028595	0.025565020142893302	0.9853302331512503	-0.11938682854814447	-0.9917734158704024	0.046176582181552905	0.9784048363463971	-0.12542695610532523	-0.16429258929158302
29281	133.10013022222222	0.16875760256623346	0.025572046381078628	0.9853258050106988	-0.11932225298648963	-0.9917812138773017	0.046176008297540094	0.978408437984018	-0.1253638474359745	-0.16431930573649706
29282	133.1045564166667	0.16867253219282155	0.025625115146912028	0.9853389926098375	-0.11934858391852754	-0.9917758625729372	0.04622287241560474	0.9784198957504412	-0.12539534238325828	-0.1642270249023639
29283	133.10898261111112	0.1686602500040123	0.02561304626291061	0.9853414088171256	-0.11939569708233555	-0.9917704633740926	0.04621704768763141	0.9784162649848003	-0.12544050318725464	-0.1642141667863073
29284	133.11343249305554	0.16863829150993748	0.025571862669568526	0.9853462368508941	-0.11946531241986058	-0.9917635989493928	0.046184444647230594	0.9784115523464727	-0.1255031618667703	-0.1641943683455946
29285	133.1178586875	0.16864958999714136	0.025571703620035108	0.9853443072184287	-0.11953763964166891	-0.9917542580817864	0.04619788182962303	0.9784007709025451	-0.1255769865485486	-0.16420216791105702
29286	133.12228488194444	0.16862736300597853	0.025541088805100698	0.9853489053265853	-0.11961226195262148	-0.9917462464946507	0.0461767187481833	0.9783954820195295	-0.12564646969342735	-0.1641805269127593
29287	133.12671107638886	0.1686358066411751	0.025502532465189284	0.9853484589506102	-0.11963062692186532	-0.9917456433268259	0.0461420853943707	0.978391781353851	-0.12565906167134117	-0.16419294259838463
29288	133.13113727083334	0.16866058858452648	0.025491626672738826	0.9853444995674857	-0.11963710108757902	-0.9917451734221302	0.0461353989607689	0.978386717970804	-0.12566498304415052	-0.1642185803581065
29289	133.13556346527776	0.1686664327477033	0.025472871986359114	0.9853439842293308	-0.1196421381041452	-0.9917453692768958	0.04611812341913357	0.978385094558392	-0.1256672404033778	-0.16422652476188648
29290	133.14000090972223	0.1686669057705692	0.0254678215305002	0.98534403380965	-0.11964946363568502	-0.9917446618631421	0.04611433093578132	0.9783841171796868	-0.12567384665256526	-0.16422729224484195
29291	133.14443835416668	0.16866737875607613	0.0254627710709497	0.9853440833703436	-0.11965678916308514	-0.9917439543805453	0.046110538457274586	0.9783831397518741	-0.12568045289155816	-0.16422805975300764
29292	133.1488645486111	0.16866752238485733	0.02546619491102843	0.9853439703013904	-0.11966434032197532	-0.9917428232518198	0.04611527061415088	0.9783821914506929	-0.12568868463494792	-0.16422740942630876
29293	133.15329074305558	0.1686876624642077	0.025496452313133383	0.9853397401159695	-0.11985748643964333	-0.9917164519478376	0.046180752271517245	0.9783550763790889	-0.12589046769091233	-0.1642343894189981
29294	133.1577169375	0.16870788539610695	0.025458578204972104	0.9853372570855907	-0.12008748137272685	-0.9916884830121695	0.046183865998603635	0.9783233852989148	-0.12611825187816122	-0.16424841040469063
29295	133.16214313194445	0.16868372879959043	0.02540327179569235	0.9853428202510743	-0.12032651849935322	-0.9916603771820229	0.04616519547270531	0.9782981797918728	-0.1263501884022437	-0.16422028287220342
29296	133.1665693263889	0.16863390984221677	0.025328417074665543	0.9853532745872513	-0.12059856845642286	-0.9916290117225697	0.046129040705190916	0.978273269458789	-0.12661111483045828	-0.16416770651927842
29297	133.17102205208334	0.1686209960622829	0.025323711765343357	0.9853556055097009	-0.12078660852692064	-0.9916049552179506	0.04615417627658919	0.9782522961319988	-0.12680032495869975	-0.16414664998969708
29298	133.17547477777777	0.16860808135239203	0.025319008958332515	0.9853579363297549	-0.12097464450362777	-0.9915808625208373	0.04617930780829749	0.9782312867056984	-0.12698953054405898	-0.1641255886274699
29299	133.1799009722222	0.16863044842517386	0.025302172986594568	0.9853545412216262	-0.12099153400153179	-0.9915793227252943	0.04616812150827809	0.9782253424257016	-0.12700490851066892	-0.16414911711707636
29300	133.18432716666666	0.16865923536759908	0.02530697936762502	0.9853494908510906	-0.12097427052152238	-0.9915811636130514	0.046173822016080834	0.9782225146647374	-0.12698957737969607	-0.16417782749178972
29301	133.1887533611111	0.16862856966243497	0.025305022258648127	0.9853547895768765	-0.12095315335365936	-0.991584182922727	0.04616430299781149	0.9782304126264973	-0.12696638935543886	-0.16414870022828576
29302	133.19317955555556	0.16863590609313797	0.02533972486424374	0.9853526422149335	-0.12092904718577496	-0.9915856404616843	0.046196138117076124	0.9782321282409852	-0.1269480837744147	-0.16415263416441794
29303	133.19760574999998	0.16863780262678219	0.02535565103923622	0.9853519079423286	-0.12092220742706611	-0.9915857697351536	0.04621126496547312	0.978232646805542	-0.1269438939812389	-0.16415278402970784
29304	133.2020432256944	0.16855040333181998	0.025373712535375362	0.9853663969553929	-0.12095078280585692	-0.9915817460342313	0.0462228198009948	0.9782441769186929	-0.12697171198293333	-0.16406253283669558
29305	133.20648070138887	0.1684630031882058	0.025391776512891998	0.9853808777535368	-0.12097935911753988	-0.991577721368285	0.04623437199302588	0.978255698283593	-0.1269995282337676	-0.16397227998683372
29306	133.21090689583332	0.16846638372221323	0.025396430914637808	0.9853801798556525	-0.1209870300189565	-0.9915764864831181	0.04624078309227514	0.9782541674446127	-0.12700823890831942	-0.16397466611234535
29307	133.21533309027777	0.1684279264011206	0.02540843469672481	0.9853864445254366	-0.12099877112526741	-0.9915746330331906	0.04624980552681923	0.9782593372896545	-0.12702030771241157	-0.163934469939212
29308	133.2197592847222	0.16837963386685023	0.02547724361660894	0.9853929211013065	-0.12104973588880708	-0.991565076554069	0.046321273725725476	0.9782613456229965	-0.12708111195619715	-0.16387535093436412
29309	133.22418547916666	0.16834970210605715	0.025453685911932825	0.9853986440392022	-0.12120711394398437	-0.991545910064977	0.046320014710558466	0.978247010386524	-0.12723528640637788	-0.16384129077529624
29310	133.22861167361108	0.16835860113403434	0.025452081760652293	0.9853971650853479	-0.1213914849389835	-0.9915219329685754	0.046350445807656404	0.9782226172035176	-0.12742232134249099	-0.16384157962858903
29311	133.23304914930554	0.16834986269643482	0.025457006148781658	0.9853985308331005	-0.12156963137365473	-0.991498532949808	0.0463840908723292	0.9782019977784575	-0.12760329147917648	-0.16382384303243241
29312	133.237486625	0.16834112512222027	0.02546193214996749	0.9853998962876824	-0.12174777406975124	-0.9914750998386449	0.04641773270001248	0.9781813457133834	-0.12778425728993165	-0.16380610027472953
29313	133.24191281944445	0.16833923096850445	0.025494200315170204	0.9853993855626371	-0.12191544991476033	-0.9914516710118062	0.0464780283572685	0.9781607875952778	-0.12795948498719223	-0.16379207493892517
29314	133.2463390138889	0.16827931160520415	0.025529782786818875	0.9854086987014763	-0.12210253488831796	-0.9914258694971423	0.046537256748576894	0.978147761976444	-0.12815215754209414	-0.1637192116331514
29315	133.25076520833332	0.16830481786009535	0.025513389326891248	0.9854047672150439	-0.12210079472415486	-0.9914267137833095	0.046523833940871395	0.978143590794731	-0.12814889059949935	-0.16374668737201248
29316	133.2551914027778	0.16826871911762387	0.0254921032423793	0.9854114830053454	-0.12208353841427128	-0.9914302022200754	0.046494771470686536	0.9781519553805357	-0.12812613628038616	-0.16371452405664727
29317	133.25961759722222	0.16822943903782211	0.02545508738413038	0.9854191465398295	-0.12206278928928976	-0.991434908056869	0.04644888111877571	0.9781613012749678	-0.128097078860269	-0.1636814194572122
29318	133.26406747916667	0.16822537349072247	0.025500100442787083	0.9854186768025632	-0.12203986000274164	-0.9914358130424391	0.04648979659440122	0.9781648615056759	-0.1280811207566726	-0.16367263125304882
29319	133.26849367361112	0.16824667095675494	0.025563566538918725	0.9854133963863998	-0.1220505541601361	-0.9914312845504667	0.04655824571239281	0.9781598642048104	-0.12810352095247868	-0.16368496564561064
29320	133.27291986805557	0.16815062011530246	0.025584849260981923	0.9854292386788268	-0.12214086989072992	-0.9914190412015692	0.04658210649270078	0.9781651071558295	-0.12819399452101632	-0.16358277082740297
29321	133.2773460625	0.16810616188328592	0.025641351511641347	0.9854353552768073	-0.12227535359096603	-0.9913990091983091	0.046655572709111026	0.9781559467902217	-0.128337545766106	-0.16352497700858398
29322	133.28177225694446	0.16807919288394657	0.025712739102842774	0.9854380954516173	-0.12232222734229525	-0.9913896428950898	0.046731666548142425	0.9781547206947896	-0.12839560353912466	-0.1634867314931796
29323	133.28619845138888	0.1680467895835448	0.02574649000906043	0.9854427404790587	-0.12238594290692933	-0.9913798777631364	0.046771988894321825	0.9781523181434708	-0.12846422155044596	-0.1634471972595195
29324	133.29063592708331	0.1679966129131031	0.02576019009411508	0.9854509377214272	-0.12244000732124771	-0.9913724383259239	0.046788173023588175	0.9781541712107034	-0.12851887462169703	-0.16339313391043925
29325	133.29507340277777	0.16794643652760619	0.025773892978454727	0.9854591320285253	-0.12249407219413022	-0.991364995705039	0.046804354156933514	0.9781560186059166	-0.1285735265577	-0.1633390692196402
29326	133.29949959722222	0.16791966592355664	0.02576335403523429	0.9854639696026318	-0.12256920656770504	-0.9913557845593983	0.04680275656393973	0.9781512027276176	-0.12864664010177373	-0.16331033829197805
29327	133.30392579166667	0.16789034172607745	0.0257589283645588	0.9854690815873479	-0.12264918932015706	-0.991345655392069	0.04680777600333047	0.9781462107038035	-0.12872555746540465	-0.16327804917076755
29328	133.3083519861111	0.16787214269790354	0.025747255102891095	0.985472486962818	-0.12265432605532456	-0.9913456475039544	0.04679448124383767	0.9781486901314793	-0.12872795356732902	-0.16326130577830966
29329	133.31277818055557	0.16786028614455695	0.025765202297971315	0.9854740375504635	-0.12264439349889156	-0.9913461763814198	0.04680930801911165	0.978151970339352	-0.12872028948259728	-0.16324769522648658
29330	133.317204375	0.16787230397716596	0.025810741709091936	0.9854707987402899	-0.1226304898953477	-0.991345766700705	0.04685438925670565	0.9781516510773907	-0.12871432110304754	-0.16325431399370915
29331	133.32163557638887	0.1678494060326251	0.025807615694906777	0.9854747809389337	-0.12265674605909749	-0.9913426032296155	0.04685259510553985	0.9781522885219303	-0.12873931021282342	-0.16323078896224624
29332	133.32606677777778	0.1678265079136623	0.025804490265887853	0.9854787625939097	-0.12268300209973931	-0.9913394390948378	0.0468508003232363	0.9781529247706111	-0.1287642993117662	-0.1632072638869027
29333	133.33049797916667	0.1678036096203061	0.025801365422038744	0.9854827437052129	-0.12270925801724142	-0.9913362742963763	0.046849004909797154	0.9781535598234328	-0.12878928839984544	-0.16318373876770775
29334	133.33492918055555	0.16778071115258403	0.025798241163363544	0.985486724272839	-0.12273551381157183	-0.9913331088342343	0.046847208865224754	0.9781541936803947	-0.12881427747703078	-0.16316021360468946
29335	133.33936038194446	0.16775781251052352	0.025795117489866057	0.9854907042967825	-0.12276176948269846	-0.9913299427084159	0.04684541218952126	0.9781548263414954	-0.1288392665432918	-0.16313668839787632
29336	133.34379158333334	0.16773491369415267	0.02579199440154996	0.9854946837770389	-0.12278802503058955	-0.9913267759189246	0.0468436148826889	0.9781554578067347	-0.12886425559859804	-0.16311316314729718
29337	133.34822278472222	0.16771201470349922	0.025788871898419052	0.9854986627136032	-0.12281428045521314	-0.9913236084657647	0.04684181694472972	0.9781560880761113	-0.12888924464291912	-0.16308963785298025
29338	133.35265398611114	0.16768911553859156	0.025785749980477016	0.9855026411064708	-0.12284053575653764	-0.9913204403489397	0.04684001837564589	0.978156717149625	-0.12891423367622518	-0.1630661125149549
29339	133.35708518750002	0.1676662161994569	0.025782628647727804	0.9855066189556366	-0.12286679093453062	-0.991317271568454	0.04683821917543973	0.9781573450272748	-0.12893922269848523	-0.16304258713324904
29340	133.36151138194444	0.1676179381543907	0.025757618006564356	0.985515485379859	-0.12310353415011943	-0.9912875273770534	0.04684610919210125	0.9781358528796609	-0.12917268744326665	-0.1629867176492089
29341	133.36593757638892	0.16758497030021624	0.025733644433730496	0.9855217183165645	-0.12326762591913176	-0.9912671903947067	0.046844953274024936	0.9781208361596929	-0.12933343261176877	-0.16294935740628275
29342	133.37036377083334	0.16756377055034533	0.02574557022368705	0.9855250115612536	-0.12341665989044776	-0.9912470387277144	0.0468789534335301	0.9781056746898249	-0.12948541936216112	-0.1629196590720976
29343	133.37478996527778	0.16752604880009686	0.025677689854512714	0.9855331953907809	-0.12356328250650295	-0.9912310827213272	0.04683007434676545	0.9780936244499532	-0.12962097396193606	-0.16288420709053847
29344	133.37921615972223	0.16752732987203223	0.025663737823976226	0.9855333410427318	-0.12361126611688039	-0.9912253774343955	0.046824203346368	0.9780873420277603	-0.12966735784669348	-0.1628850136572682
29345	133.38366604166666	0.16750987627381866	0.02566345563959574	0.9855363151073453	-0.1236407630385547	-0.991221589876172	0.046826504018534276	0.9780866030500437	-0.12969636389655786	-0.16286635664260968
29346	133.38809223611108	0.16752052176833257	0.025662536587431103	0.985534529584004	-0.1236649640551376	-0.9912183570427369	0.04683102952892254	0.9780817202318561	-0.129721250677736	-0.16287585969350038
29347	133.39251843055555	0.1675236049155136	0.025672111741194215	0.9855337561315993	-0.12362355115190043	-0.991223374257896	0.04683417475929935	0.9780864273655495	-0.1296810125019801	-0.16287963531318728
29348	133.39694462499997	0.16752431191882802	0.025713162369148668	0.9855325657719796	-0.1235692437849738	-0.9912286173927973	0.046866513119427355	0.978093168827251	-0.12963279424027518	-0.1628775360537036
29349	133.40137081944442	0.1675360240013803	0.025785003513105975	0.9855286978346386	-0.12351208321646279	-0.9912326993147815	0.04693081193269466	0.9780983825573677	-0.1295873041735242	-0.1628824258037066
29350	133.40579701388887	0.16754733648784564	0.02579056862766771	0.9855266290698036	-0.12345453275336038	-0.9912399860683934	0.046928332186229105	0.9781037104410137	-0.12953044657142632	-0.16289565688663632
29351	133.41023448958333	0.16756068689769393	0.02582724227160703	0.9855233988916837	-0.12334742296629736	-0.9912523341076189	0.0469491573275897	0.9781149367298029	-0.12942860457735433	-0.16290919821548605
29352	133.4146719652778	0.16757403332023674	0.02586391728628569	0.9855201677994199	-0.12324031151455661	-0.9912646702607926	0.04696998095121718	0.9781261518713134	-0.12932676163644863	-0.1629227416601069
29353	133.4190981597222	0.16760281325568344	0.025916568778058188	0.9855138905421643	-0.12312650023609734	-0.9912770203164394	0.04700780714064828	0.9781355539639642	-0.12922151699827022	-0.16294980090897604
29354	133.4235243541667	0.16764734595186803	0.02595720796187989	0.9855052464345984	-0.12308016003040773	-0.9912809214733196	0.04704688012925046	0.9781337544539521	-0.12918342803096128	-0.16299079826783341
29355	133.4279505486111	0.16765848976788342	0.02599911996378297	0.9855022458471931	-0.12304922995816497	-0.991282934132415	0.04708536401614788	0.9781357358850842	-0.12915955349465763	-0.16299782797818346
29356	133.43237674305556	0.1677177198086406	0.026051303796480837	0.9854907894205271	-0.12301876068760031	-0.9912840886168242	0.0471406424860657	0.9781294142295676	-0.1291401766516354	-0.163051107918061
29357	133.4368029375	0.16776585233607227	0.026093822654299756	0.9854814717736898	-0.123051621606724	-0.9912774100454733	0.04719528316998006	0.9781170263367811	-0.12918285007238756	-0.1630916124062432
29358	133.44124041319446	0.16780297346374823	0.026091464691624544	0.9854752140804814	-0.12309844703830863	-0.9912711025332155	0.047205652408800036	0.9781047665937844	-0.12923171728654476	-0.16312641972926772
29359	133.4456778888889	0.16784009424828414	0.02608910487395144	0.9854689550511488	-0.12314527178378387	-0.9912647926663106	0.04721602331321828	0.9780925031918122	-0.12928058410717497	-0.16316122631582103
29360	133.45010408333331	0.1678859322070998	0.026055710727061893	0.9854620305752326	-0.12324658910977543	-0.9912527050813238	0.04720543339239819	0.9780718746798515	-0.12937996215591357	-0.1632061069714461
29361	133.4545302777778	0.16797204445831498	0.026050817324352493	0.985447485763309	-0.1233562271480736	-0.99123788388413	0.04723027394272372	0.9780432677056199	-0.12949444957080236	-0.1632867233612954
29362	133.4589564722222	0.16801775915571748	0.02604781593004729	0.9854397718245219	-0.12346949041268807	-0.9912227343248416	0.04725225809223932	0.9780211232614164	-0.12961096497927505	-0.16332691208621647
29363	133.46338266666666	0.16807170486550346	0.02605284923296032	0.9854304394884744	-0.12339400555429825	-0.991232150981675	0.047251902115235445	0.9780213808587568	-0.1295379168702609	-0.16338331211003299
29364	133.4678088611111	0.16809774104210987	0.026072350811019787	0.9854254827127858	-0.12328223118207504	-0.9912458486417786	0.04725631201447844	0.978031002029746	-0.12942913147212054	-0.16341193039390783
29365	133.47224630555553	0.16816515474265595	0.026100832567037643	0.9854132266565566	-0.12316027104474786	-0.9912601873534259	0.04727355078937395	0.9780347787101249	-0.12931352406983093	-0.16348083718307305
29366	133.47668374999998	0.16823256415819876	0.026129322282938364	0.9854009655332148	-0.1230383079594487	-0.9912745113292412	0.047290780956229295	0.978038536628917	-0.12919791680212395	-0.16354974522376375
29367	133.48110994444443	0.16827441467033805	0.02619046141554013	0.9853921965888491	-0.12301794465053034	-0.9912739995914364	0.04735444042491588	0.9780338985236222	-0.12918946344357557	-0.16358415532638498
29368	133.48553613888888	0.16837914990924	0.026183155241709388	0.9853744994962221	-0.12301441918081069	-0.9912741515175498	0.04736041814394504	0.9780163160957231	-0.12918977867753328	-0.16368899332514836
29369	133.48996233333332	0.16841580006239515	0.026205464967545875	0.9853676430120781	-0.12312398945307113	-0.9912583655906637	0.047406074164456025	0.9779962175338426	-0.1293063271938409	-0.16371704931721687
29370	133.49438852777777	0.16841266538281924	0.02619613563331992	0.9853684268417248	-0.12320228752799245	-0.9912484790043581	0.047409379023744314	0.977986896888974	-0.1293839841302929	-0.16371137457137086
29371	133.4988147222222	0.16843985298395464	0.02613316606194599	0.985365451778335	-0.12324530503277664	-0.9912456421833196	0.047356854202493304	0.9779767945683177	-0.12941844723283114	-0.16374448021756743
29372	133.50326460416667	0.16846447895110847	0.026145567577169945	0.9853609128780172	-0.12335338734502371	-0.9912305800001497	0.04739070692736702	0.9779589261120533	-0.1295312571105317	-0.16376199885542814
29373	133.5076907986111	0.16842794375054654	0.026210885728627245	0.9853654231975486	-0.12332881895800396	-0.9912309234084011	0.0474474329479756	0.977968317573932	-0.1295154274526768	-0.1637184286308777
29374	133.51211699305554	0.16843694895446387	0.026264333559500974	0.9853624607268063	-0.12324159489902392	-0.9912398390257363	0.04748779648475465	0.9779777622797239	-0.12943634076606103	-0.16372455581077605
29375	133.5165431875	0.1684015091643828	0.026349420604030907	0.9853662465017717	-0.12313715853262874	-0.9912497789263479	0.04755119311833189	0.9779970203940648	-0.12934289239188418	-0.1636833659478964
29376	133.52096938194444	0.1683205262880483	0.02646095280496974	0.985377094521061	-0.12307852420051762	-0.9912526618940021	0.04764280815273392	0.9780183420114049	-0.1292980211167547	-0.163591394714252
29377	133.52539557638886	0.16820425311309756	0.02646600481291421	0.9853968133822577	-0.12307867961092572	-0.9912531402279562	0.04763245336372274	0.9780383263757594	-0.12929331992589138	-0.16347559317110594
29378	133.5298301736111	0.1681132437713209	0.026505081428852023	0.9854112937891136	-0.12334056399110516	-0.9912171762047937	0.047703405234336305	0.9780209826701272	-0.12956075893203617	-0.16336758308157195
29379	133.53426477083332	0.1680222431324211	0.026544182868370916	0.9854257618758504	-0.12360244607801002	-0.9911811382895315	0.047774328070641525	0.9780035588566547	-0.1298281843627151	-0.16325955227428085
29380	133.53869936805555	0.167931251204061	0.02658330912817826	0.9854402176412501	-0.12386432584958668	-0.9911450264852046	0.04784522186666601	0.9779860549368105	-0.1300955961954086	-0.16315150075832974
29381	133.54313396527778	0.16784026799390345	0.02662246020497913	0.9854546610840954	-0.12412620328378238	-0.9911088407948541	0.04791608661643976	0.9779684709120678	-0.13036299440759758	-0.16304342854281767
29382	133.54756856249998	0.16774929350961065	0.026661636095476365	0.9854690922031696	-0.12438807835854254	-0.9910725812215269	0.04798692231399471	0.9779508067839076	-0.13063037897676277	-0.16293533563684626
29383	133.5520031597222	0.16765832775884237	0.026700836796371294	0.9854835109972577	-0.12464995105181803	-0.9910362477682764	0.048057728953366685	0.9779330625538172	-0.13089774988039116	-0.16282722204951677
29384	133.55643775694443	0.16756737074925937	0.02674006230436289	0.9854979174651458	-0.12491182134155454	-0.9909998404381621	0.04812850652859263	0.9779152382232911	-0.13116510709596513	-0.16271908778993377
29385	133.56087235416666	0.16747642248852143	0.02677931261614773	0.9855123116056204	-0.12517368920570016	-0.9909633592342506	0.04819925503371225	0.9778973337938301	-0.13143245060097092	-0.16261093286720385
29386	133.5653069513889	0.16738548298428707	0.026818587728420523	0.9855266934174689	-0.12543555462220218	-0.990926804159613	0.04826997446276776	0.9778793492669418	-0.13169978037289476	-0.16250275729043429
29387	133.5697331458333	0.1672743763217478	0.026749088049448824	0.9855474465060997	-0.12601051667840768	-0.9908533393172438	0.04828053075834815	0.9778244385944805	-0.13226543861640477	-0.16237370795482575
29388	133.5741593402778	0.1671567732715472	0.026724002973447084	0.9855680802534749	-0.12655730508624358	-0.9907812347376967	0.04833004677167968	0.9777739317852323	-0.13280953488631925	-0.16223367641931652
29389	133.5785855347222	0.16710554827177856	0.026690820516427946	0.9855776660603405	-0.1271044419050254	-0.9907087328546038	0.048380445364189506	0.977711714456158	-0.13335594004687268	-0.1621604041355798
29390	133.58301172916669	0.16701046216489104	0.02668846286213372	0.985593847118338	-0.12768935416066624	-0.9906295294039034	0.048461988269498046	0.9776517449283776	-0.1339435008615853	-0.16203766295352767
29391	133.5874379236111	0.1669086730840027	0.026666265463545002	0.985611690847651	-0.1282849619441062	-0.9905495240875208	0.04852431214335218	0.9775911534932877	-0.13453828680421798	-0.16191042583925613
29392	133.59186014930555	0.16681577897096045	0.026555700438288796	0.9856304026665086	-0.12897926589558928	-0.9904598008081815	0.04851527545065393	0.9775156494171062	-0.13521899924659186	-0.16179918846336538
29393	133.596282375	0.16672280587658647	0.026445200145134948	0.9856491045955057	-0.12967350625771668	-0.9903695947662434	0.04850615978798217	0.9774396594038266	-0.13589965839482854	-0.16168795586777923
29394	133.60070856944444	0.16661945101098952	0.026390522150473272	0.9856680470043767	-0.13033364247340268	-0.9902809885380284	0.04854591002093617	0.9773694798715642	-0.13655439971224265	-0.1615605017781801
29395	133.60513476388888	0.16651669859551638	0.02634869656459682	0.9856865299263233	-0.13061893335585212	-0.9902438553926332	0.04853659553484746	0.9773489056308547	-0.1368314768117363	-0.16145049896389246
29396	133.6095609583333	0.1664090354019826	0.02626837719594695	0.9857068556604817	-0.13080278893972974	-0.990222793756706	0.04847111645354324	0.9773426540073704	-0.13699923753129395	-0.16134604294395904
29397	133.61398715277778	0.1663039169306413	0.026234764372751032	0.9857254913777126	-0.13094897815346263	-0.9902046685535333	0.048446666504018465	0.9773409703548147	-0.13713661623758194	-0.16123949935675141
29398	133.6184133472222	0.16625014567413743	0.02623453044066372	0.9857345679623323	-0.13109983012063836	-0.9901838724871139	0.048463730858887555	0.97732989497184	-0.13728673671910485	-0.16117887056109853
29399	133.62286607291668	0.16614530794891835	0.026185087129130383	0.9857535583798818	-0.13159857733406083	-0.9901168423340578	0.04848147037875217	0.9772806920686659	-0.13777873471067464	-0.16105734746144074
29400	133.62731879861113	0.1660404433508652	0.02613569665948902	0.9857725379274731	-0.13209729323208363	-0.9900495632872999	0.04849914798616384	0.977231229695718	-0.13827070403650243	-0.1609358136421004
29401	133.63174499305555	0.16594374944225035	0.026134167341146	0.9857888604150653	-0.1327447825386221	-0.9899584802078265	0.048590432940908646	0.9771599125679594	-0.1389216065340304	-0.16080824763731
29402	133.63617118750003	0.16585987275676342	0.02615746694944343	0.9858023582503235	-0.13332226842752415	-0.9898756442538414	0.04869683413099635	0.9770955303093192	-0.1395062573357601	-0.16069327557094348
29403	133.64059738194445	0.1658097048194076	0.026102776067762443	0.9858122472708771	-0.13390988327854558	-0.9897946252972755	0.04873133378999944	0.9770236869943467	-0.14009013103777979	-0.16062213495589722
29404	133.6450235763889	0.16574786703360955	0.026096534321520037	0.9858228113967614	-0.13454346347087803	-0.9897043178576799	0.04882027909716513	0.9769471331710173	-0.1407278725422592	-0.16053026156665995
29405	133.64944977083334	0.16571418068200083	0.026048484485628354	0.9858297453297378	-0.13532186907249288	-0.9895944959161073	0.048895044772174684	0.9768453317038582	-0.14150692600911036	-0.16046491149105424
29406	133.65389965277777	0.1657737958132801	0.026018645169469515	0.9858205103999422	-0.1360765665817965	-0.9894859200750241	0.04899777546576381	0.9767303704958534	-0.14226961754650475	-0.16049030897286115
29407	133.6583258472222	0.16574517884181933	0.025998258780953465	0.9858258599930578	-0.13678774506805053	-0.9893832870176623	0.049089959964581986	0.976635883269651	-0.1429853206118894	-0.16042926665550716
29408	133.66275204166666	0.16575465582648455	0.026064728560208972	0.985822511407062	-0.13743096306760577	-0.9892855081708207	0.04926371599374113	0.9765439695488138	-0.14364822744567457	-0.16039657817285796
29409	133.66717823611108	0.16573579591551418	0.026114854349884947	0.9858243557219183	-0.1380682906514552	-0.9891891713955496	0.04941589127367152	0.9764572663812976	-0.14430106574821383	-0.16033842133154913
29410	133.67160443055556	0.1657136554098356	0.026137618049409228	0.9858274744261358	-0.13869523325073352	-0.9890953350261906	0.049538374044296285	0.9763721711951008	-0.14493875655645438	-0.1602814404840246
29411	133.67603062499998	0.16567520294090976	0.02617645716827245	0.985832906846087	-0.1392555883429113	-0.9890103187910337	0.04966357256709478	0.9762989338546662	-0.14551076391447837	-0.16020926733265767
29412	133.68045281944444	0.16564136010287844	0.026221384247728283	0.9858373997933948	-0.13967570737469043	-0.9889455973619368	0.04977250473727726	0.9762446602121052	-0.14594192155297753	-0.1601478034216397
29413	133.6848750138889	0.16560753604562667	0.026266326145536895	0.9858418859612901	-0.14009580398284532	-0.9888806857359453	0.04988141021269568	0.976190201605864	-0.146373049053517	-0.160086291728805
29414	133.68930120833332	0.16559177063471442	0.026411739607141063	0.985840649146192	-0.1404382847594416	-0.9888220146769611	0.05008104895089727	0.976143664463324	-0.14674277938324848	-0.16003156884500364
29415	133.6937274027778	0.165635633161372	0.026560985103722387	0.9858292707652533	-0.1407001763563297	-0.988774671873968	0.05028030065368483	0.9760985080413396	-0.14703456168822043	-0.16003918354148094
29416	133.69815359722222	0.16562266719881613	0.026657882990707038	0.9858288337152673	-0.14097708750946686	-0.9887280674977366	0.0504209216450833	0.9760607526723419	-0.14733012528551392	-0.15999762897010827
29417	133.70257979166666	0.16565230118508462	0.02676624154237861	0.9858209185373281	-0.14126792607778232	-0.9886783391437115	0.05058176321278715	0.9760136721244064	-0.14764386212005992	-0.15999563057941452
29418	133.7070059861111	0.16566147803360282	0.026905407557202513	0.9858155880994696	-0.14168548454399554	-0.9886078498837001	0.050791166730652176	0.9759515859740457	-0.14808989902254827	-0.15996213190075992
29419	133.71145871180556	0.1656616594169904	0.027019161166445704	0.9858124464263327	-0.1421204129944469	-0.9885358769194927	0.050976546109924664	0.975888314721258	-0.14854893124109325	-0.1599225194199742
29420	133.7159114375	0.16566189081486862	0.02713291408850535	0.9858092832311476	-0.14255531196743976	-0.9884636778012534	0.05116190670299564	0.975824841332454	-0.14900792811352642	-0.1598828208339021
29421	133.72033763194443	0.1656604473410473	0.027295761013453643	0.9858050302252777	-0.14288948362021114	-0.9884041282060242	0.05137971210544881	0.9757762098234992	-0.1493727578107394	-0.15983919283611464
29422	133.72476382638888	0.16560839169942504	0.027325325956760252	0.9858129574924883	-0.14324738614258659	-0.9883481461142134	0.05145996925683277	0.9757325693867386	-0.14973733213181767	-0.15976446539828315
29423	133.72919002083333	0.1655649159600647	0.027402617950453623	0.985818114629975	-0.1435679504442115	-0.9882952054127743	0.051583239170983425	0.9756928318935143	-0.150072260886494	-0.1596928749319485
29424	133.73361621527778	0.16549564586340126	0.02754391472429496	0.9858258081232791	-0.14377193989453751	-0.988256959361198	0.05174757552891843	0.9756745464032652	-0.15029808726600757	-0.15959218171628092
29425	133.7380424097222	0.16539444568042702	0.02765505797908578	0.9858396802250546	-0.1439583240066723	-0.9882232070709245	0.051873827270086076	0.9756642241505293	-0.15049947101113065	-0.1594654537450529
29426	133.74247988541663	0.16524470572368416	0.02774789403331837	0.9858621818525187	-0.1441336177657525	-0.9881924785900597	0.05197235310999676	0.9756637163798032	-0.15068403908427053	-0.15929417097056958
29427	133.7469173611111	0.1650949779510344	0.02784075817089182	0.9858846486480138	-0.14430892175427823	-0.9881617083855962	0.0520708477228628	0.9756631505583602	-0.150868586077188	-0.15912286566551342
29428	133.75134355555554	0.16490674034338965	0.027895345731824853	0.9859146092212145	-0.14451978539947663	-0.9881277337876868	0.05213073323577658	0.975663773344797	-0.1510808770364815	-0.1589174942430206
29429	133.75576974999998	0.16474542688703145	0.027867027937505492	0.9859423781711283	-0.14468338411970483	-0.9881052059011954	0.05210393872469077	0.9756667785055919	-0.15123336544852356	-0.15875391804813388
29430	133.76019594444443	0.1645495850893835	0.027901462835318594	0.985974108391575	-0.14481315892581426	-0.9880848669493946	0.05212911573702547	0.975680574291012	-0.1513598496208512	-0.15854845591778782
29431	133.76462213888888	0.1643223326097995	0.027942300057790873	0.9860108512958441	-0.14480937275305805	-0.9880851589995574	0.052134097553188624	0.9757194353750163	-0.15135040942230665	-0.15831815119928555
29432	133.7690483333333	0.1640980340945893	0.027981733836528633	0.9860470869982795	-0.1447420328420458	-0.9880953558627521	0.05212783950264385	0.9757671746554313	-0.15127653583409056	-0.15809437235712714
29433	133.77349821527778	0.16382185620114217	0.028020022509885126	0.9860919215617567	-0.14467389380519574	-0.9881061553691314	0.052112284279975135	0.9758236848335129	-0.15119888908381413	-0.15781961873533096
29434	133.7779244097222	0.16358586508587447	0.027972597595621387	0.9861324447191967	-0.14485963721148182	-0.9880817969142136	0.05205812245689176	0.9758357188846203	-0.1513667611813514	-0.15758411518425242
29435	133.78235060416665	0.163297296097981	0.02791624210265914	0.9861818678691847	-0.14503883669286843	-0.9880593216090359	0.05198569834359351	0.9758574326907941	-0.15152379485862078	-0.15729847632375488
29436	133.7867767986111	0.16298250736232345	0.027899803125981143	0.9862344058485396	-0.14514916500784658	-0.9880456279533862	0.05193801093345643	0.9758936531156535	-0.15161608776027174	-0.15698452070460472
29437	133.79120299305555	0.16265897503176988	0.02791900660809246	0.9862872740290383	-0.14511576604407322	-0.988052450523282	0.051901536204423754	0.9759525973565805	-0.15156808399183047	-0.1566641108486227
29438	133.79562918749997	0.16234449096250209	0.027845209876336985	0.986341173499854	-0.14503180353217604	-0.9880719286617431	0.051765236934333075	0.9760174395052224	-0.15145464033038436	-0.1563695932848312
29439	133.80007794444444	0.16209955535769904	0.02778087752743666	0.9863832708418375	-0.14481987254401502	-0.9881101504869338	0.05162881967490687	0.9760896161055969	-0.15121690827580875	-0.1561489928956768
29440	133.80450413888886	0.16181982111718374	0.02760700361661972	0.9864340823617739	-0.14470166740632306	-0.9881397940803696	0.0513923613451949	0.9761535601243446	-0.151054959223844	-0.15590582526143892
29441	133.80893033333334	0.16151679900995175	0.027459991758430752	0.9864878471072039	-0.144549882139818	-0.9881733450285892	0.0511739362212226	0.9762262315728583	-0.1508621524029003	-0.15563725698373276
29442	133.81335652777776	0.16122706856005334	0.027312742080566776	0.9865393284018495	-0.14441201323321678	-0.9882045760653714	0.05095965342689143	0.9762945266657297	-0.15068420608511074	-0.15538103886587584
29443	133.81778271874998	0.16091653585077254	0.027243801765679226	0.9865919337573869	-0.1440565049219143	-0.9882653960345114	0.05078612399497917	0.9763982752337644	-0.15029731290380177	-0.15510359716791616
29444	133.82220890972224	0.16060601304920594	0.02717473798216298	0.9866444355430376	-0.14370092100365905	-0.9883260597728099	0.050612694817137066	0.9765017940972451	-0.14991041721492637	-0.15482607317667219
29445	133.82663510416666	0.16023271443054232	0.027076517770080674	0.9867078287982047	-0.14322356653772622	-0.9884071651880811	0.05038140324639109	0.9766332408916023	-0.14939256337016393	-0.15449716759623056
29446	133.83106291666667	0.15983753365646053	0.02693361812982449	0.9867758322177621	-0.1428459796243554	-0.9884751887911567	0.050118132940543375	0.9767532897000033	-0.14896771918346774	-0.15414807719039958
29447	133.83549072916665	0.15944238388358428	0.026790545450394748	0.9868436516976691	-0.14246826290412645	-0.9885430053832825	0.049854995465533514	0.9768730318145755	-0.14854290014086158	-0.15379885087718165
29448	133.83991854166666	0.1590472652530736	0.026647299782902145	0.9869112872136983	-0.14209041651197196	-0.9886106149402328	0.04959199091536301	0.9769924671925434	-0.1481181063941045	-0.1534494887813314
29449	133.84434635416667	0.15865217790608516	0.026503881178521524	0.9869787387416867	-0.14171244058287857	-0.9886780174378531	0.04932911938399093	0.9771115957912382	-0.14769333809495505	-0.15309999102765898
29450	133.84877416666666	0.15825712198376576	0.026360289688488997	0.9870460062575374	-0.14133433525187888	-0.9887452128520648	0.04906638096532834	0.977230417568101	-0.1472685953951628	-0.15275035774102408
29451	133.85320197916667	0.1578620976272416	0.026216525364100685	0.98711308973722	-0.14095610065404457	-0.9888122011588626	0.04880377575323441	0.9773489324806848	-0.14684387844645952	-0.15240058904632658
29452	133.85762979166668	0.15746710497763577	0.026072588256716517	0.9871799891567687	-0.1405777369245006	-0.9888789823343151	0.04854130384152519	0.97746714048665	-0.1464191874005764	-0.1520506850685216
29453	133.86205760416667	0.1570721441760608	0.025928478417758194	0.9872467044922839	-0.14019924419841845	-0.9889455563545646	0.04827896532396933	0.9775850415437662	-0.14599452240923505	-0.15170064593261412
29454	133.86648541666668	0.15667721536360946	0.025784195898706744	0.9873132357199322	-0.13982062261100797	-0.9890119231958288	0.04801676029428287	0.9777026356099158	-0.14556988362413992	-0.15135047176364896
29455	133.8709116111111	0.15613725184259863	0.025540183790895912	0.9874051132128943	-0.13960007402629682	-0.9890604396323402	0.04765780194401076	0.9778205243902859	-0.1452829851228607	-0.1508637674025718
29456	133.87533780555557	0.15557646572429173	0.025301126005190494	0.987499780423068	-0.13915128406524885	-0.9891424837421673	0.04726591794695825	0.9779738664482455	-0.14476532692342325	-0.15036660754643522
29457	133.879764	0.15499976608846272	0.025055749942112432	0.9875967202797709	-0.13867456326741068	-0.9892286658020684	0.046861628845490666	0.9781331392070891	-0.14421808537869973	-0.1498556166267629
29458	133.88419019444444	0.1544018640015989	0.024808386772544558	0.98769661755955	-0.13816704312268618	-0.989319179700828	0.04644813097224226	0.9782995106753174	-0.14363879915198619	-0.14932502399333414
29459	133.8886163888889	0.1538279756388548	0.024505690051264586	0.9877937158465646	-0.13765992181916142	-0.9894115768854252	0.04598344756364836	0.9784613941467464	-0.14305314634850835	-0.14882572856935045
29460	133.89306911458334	0.15317166342079863	0.024199707037325976	0.9879032420759705	-0.13717946903272032	-0.9895002798504735	0.045508125117783516	0.9786318177950311	-0.14249059742713732	-0.148243700857915
29461	133.8975218402778	0.15251543789997218	0.02389334298892333	0.9880122212619605	-0.13669866095003974	-0.9895885496888692	0.04503308138631379	0.9788015719729131	-0.14192818777640304	-0.14766134300439032
29462	133.9019480347222	0.15186396222720916	0.02360849680874187	0.9881194137628733	-0.13625651116554877	-0.9896697336576545	0.04458678556455736	0.9789645040253735	-0.14140882985308512	-0.14707835564057614
29463	133.90637422916666	0.1511531266475616	0.02334395780333129	0.9882346846466903	-0.13573657434743247	-0.9897611475676344	0.04414128622983393	0.979146727865181	-0.14081168417314133	-0.14643686322519128
29464	133.9108004236111	0.1504641883876005	0.023128234967806707	0.9883448855334536	-0.1352455986408473	-0.9898455979239644	0.043752946401685144	0.9793207626008652	-0.14025254727748732	-0.14580832253694126
29465	133.91522661805556	0.14983947461776223	0.02287487800172626	0.9884456848014865	-0.13476001742632332	-0.9899300919365369	0.043337637011921226	0.9794834707893394	-0.1396966464698639	-0.14524798592594607
29466	133.91965281249998	0.1491928721157459	0.022688307359414406	0.9885477872207393	-0.13430641336617943	-0.990006827969101	0.04299148640454831	0.979644463179662	-0.13918233107591	-0.14465477689211687
29467	133.92410269444446	0.14856955544967634	0.022514995305633598	0.9886456201186918	-0.13388930201465904	-0.9900773215813786	0.042667928192854476	0.9797962757632388	-0.13870822714111253	-0.14408083052181714
29468	133.92852888888888	0.14792591299800506	0.022395667285965357	0.9887448398603773	-0.13361626545563993	-0.9901249780579855	0.04241723035939393	0.9799309250500234	-0.13838700051843827	-0.1434727159362194
29469	133.93295508333333	0.14729967063569332	0.022326541882760856	0.9888398922768911	-0.13321335675804286	-0.9901885172306994	0.042200733710720806	0.9800801031608949	-0.13794283552264003	-0.142880248866326
29470	133.93738127777777	0.14665894097406246	0.022332211696103707	0.9889349965256194	-0.1328029399567417	-0.9902497789506503	0.04205656223509535	0.9802318777571013	-0.1375014458431213	-0.14226320051172286
29471	133.94180747222222	0.14610234278816495	0.022367587595229388	0.9890165804762726	-0.1324608034403053	-0.9902995144374134	0.04196435698270767	0.9803612808468918	-0.13713702173444292	-0.14172225049740278
29472	133.94623366666667	0.1455157674908682	0.02239713952007217	0.9891023857785717	-0.1324467932093572	-0.9903036993832258	0.04190978354102731	0.9804504109745182	-0.13710197346944514	-0.14113837355830006
29473	133.9506711423611	0.1449843624085348	0.022368366352025923	0.9891810708074293	-0.1325702706747719	-0.990290791369911	0.04182429749766475	0.9805124466268689	-0.1371998714091855	-0.14061129860396931
29474	133.95510861805556	0.1444529120210149	0.02233964621445133	0.9892594687015445	-0.13269370068306596	-0.9902778695712203	0.041738745028067736	0.980574187916285	-0.13729778310117874	-0.14008419164138353
29475	133.95953481249998	0.1439488807413648	0.022262346680269274	0.9893346792939163	-0.13266887330661342	-0.9902875717151665	0.04158720190194287	0.9806516658777786	-0.13724034839203336	-0.1395972671092497
29476	133.96396100694443	0.14343968769541812	0.02223859476689226	0.9894091675826716	-0.13259212894670652	-0.9903022948852578	0.04148122570961882	0.9807366534066222	-0.13713792199018604	-0.1390999892774719
29477	133.96838720138888	0.1429901533452242	0.022267562423680505	0.9894735831289367	-0.1324560797633043	-0.9903227258471758	0.041428077488059545	0.9808206782995791	-0.13698559900342444	-0.13865692440562266
29478	133.97281339583333	0.1425797082213106	0.022259691857695635	0.9895329872833581	-0.1322917174063048	-0.9903483899187557	0.041339667282390025	0.9809026089827759	-0.13680121601699574	-0.13825881160727127
29479	133.97723959027775	0.14221103870476204	0.022297485478931248	0.9895851871424862	-0.13216192586618364	-0.990367048938829	0.041307792576417646	0.9809736213690223	-0.13665990823029212	-0.13789424810569195
29480	133.9816797534722	0.14193337127159739	0.022280708060690657	0.9896254282140253	-0.1320497955585917	-0.9903849743304967	0.041236562821305	0.9810289341362022	-0.13653267985612672	-0.13762651531914694
29481	133.98611991666667	0.14165569476733275	0.022263894588351645	0.9896655915700734	-0.1319376432335383	-0.9904028832441765	0.041165363591277926	0.9810841566542414	-0.13640545392095332	-0.13735876274433628
29482	133.9905502986111	0.14136503039747988	0.022275028630977793	0.9897069017038372	-0.1318751523912054	-0.990412785878656	0.04112733579842098	0.9811344823022561	-0.1363317155601324	-0.13707221078656023
29483	133.99498068055556	0.14109566931132342	0.022283028243246093	0.98974515848975	-0.13182800458082505	-0.9904205576737882	0.04109131471954092	0.9811795907527978	-0.1362739358404721	-0.13680652433535206
29484	133.9994110625	0.14086219588428825	0.022171822281210236	0.9897809111451822	-0.13188957308181154	-0.9904179589597799	0.04095616049193984	0.9812048625455104	-0.13631095651734854	-0.13658821636719493
29485	134.00384144444445	0.1407104674991092	0.02209685618697306	0.9898041691581394	-0.13181714718718568	-0.9904319857643601	0.040849985095446684	0.9812363650230327	-0.13622118235252045	-0.13645140319860188
29486	134.0082718263889	0.140534504750779	0.022002857730138485	0.9898312619967915	-0.1317290388964884	-0.990449091607746	0.04071924906968122	0.9812734141338291	-0.13611198031436683	-0.13629385726818627
29487	134.01269880208332	0.14042264137956195	0.02186562930086458	0.9898501785842462	-0.13170906456080705	-0.9904581331481344	0.040563638806562996	0.9812921094661384	-0.13606829438186302	-0.1362028456512806
29488	134.01712577777778	0.14031077928354524	0.021728395412672803	0.9898690630834135	-0.13168907250110184	-0.9904671520727739	0.04040802950711825	0.981310793480151	-0.13602462092444567	-0.13611182572325248
29489	134.02155615972222	0.1402519296565034	0.02151364859287256	0.9898820935605664	-0.13177175652147566	-0.9904647641117708	0.04019645800639221	0.9813081067691597	-0.13607613301838462	-0.13607970315918072
29490	134.02598654166667	0.14021645427434987	0.021323278157223596	0.9898912383486173	-0.1318522947964641	-0.9904615058093933	0.04001222146664141	0.9813023582503181	-0.13612980319687118	-0.13606747728221325
29491	134.0304169236111	0.14024049433987335	0.02122376711138344	0.9898899713891993	-0.13182547126100574	-0.9904691090079132	0.03991226913975854	0.981302526682838	-0.1360900283293106	-0.1361060443742516
29492	134.03484730555556	0.14015660526288898	0.021142386553584115	0.9899035940393397	-0.13185755103863261	-0.9904684059904718	0.039823648361104025	0.9813102018400082	-0.13610781103784325	-0.13603290608970164
29493	134.0392776875	0.1400682976599247	0.021026206423788475	0.9899185676782082	-0.13197562077000097	-0.9904571832072735	0.03971150658796907	0.981306938482055	-0.1362074406063694	-0.13595670491166928
29494	134.04370663194445	0.13998263549378112	0.020914460836648746	0.989933051821247	-0.13210820063175865	-0.9904437263738559	0.039606163819656925	0.9813013222685754	-0.13632244941528443	-0.13588195133778075
29495	134.0481370138889	0.13991416262604317	0.020882037042003657	0.9899434163757189	-0.13239172636748314	-0.9904059762338754	0.0396034471941783	0.9812728763631915	-0.13660140105138374	-0.1358072138905309
29496	134.05256739583334	0.13984888076386223	0.02083139764788581	0.9899537077162399	-0.13270502236898452	-0.9903647024613147	0.03958703268444219	0.9812398624124188	-0.1369080311404245	-0.13573696409641034
29497	134.05699777777778	0.13973896774508926	0.02074308179599893	0.9899710831388671	-0.13301867068983647	-0.9903250343403586	0.039526694861530876	0.9812130523700986	-0.1372080570388351	-0.13562778086432747
29498	134.06142815972223	0.13964045168416173	0.020717144265235306	0.9899855272613519	-0.13333950653954352	-0.9902817042012285	0.03953128280364593	0.9811835303597561	-0.13752434787267392	-0.135520970675986
29499	134.06585854166667	0.1394804063778502	0.020672155331312433	0.9900090293682317	-0.1336260780930783	-0.9902441892499493	0.03950337846530788	0.98116730861262	-0.13780097115285111	-0.13535732288723346
29500	134.0702855486111	0.13931420840164982	0.02066518128110819	0.9900325760398193	-0.1338644393768072	-0.9902118944115827	0.0395058987514188	0.9811584292089401	-0.1380338887680963	-0.13518425331303208
29501	134.07471255555555	0.13914800473404698	0.02065824670121868	0.9900560941793982	-0.13410279353454535	-0.990179543775364	0.03950837702365351	0.9811494654458948	-0.1382667998184801	-0.1350111792526516
29502	134.0791429375	0.13901743621244017	0.020671520039132474	0.990074159186165	-0.13421623879234318	-0.990163755207857	0.03951884508828302	0.9811524619922007	-0.1383778382977084	-0.1348755730097056
29503	134.08357331944444	0.138874488489458	0.020692145400697616	0.9900937892773128	-0.13430952631419069	-0.9901505757372684	0.03953211995850814	0.9811599398610042	-0.13846903078259976	-0.13472750248586335
29504	134.08800370138889	0.13870867785179436	0.020737067459341486	0.9901160925476336	-0.13430324612626693	-0.9901506024589712	0.03955278157201941	0.9811842542400252	-0.138462119308218	-0.13455742546631266
29505	134.09243408333333	0.13864645319693453	0.020738186366875473	0.9901247843792839	-0.13428812431287845	-0.9901530422798288	0.039543046576217655	0.9811951185592187	-0.13844450328638086	-0.13449631528539396
29506	134.09686446527778	0.1385261377537674	0.020732952773287898	0.990141734211989	-0.1341409243382583	-0.9901746860565304	0.039500677342664936	0.981232246502683	-0.13829040372401935	-0.1343839375116901
29507	134.10127622222222	0.13842872096260245	0.020817378163230184	0.9901535870656973	-0.13392564795678624	-0.9902021802359842	0.039541915422233787	0.9812753996875767	-0.13808069750082097	-0.13428444044517557
29508	134.10568797916665	0.1383312843924605	0.02090178265081371	0.9901654261992541	-0.1337103693673765	-0.990229624565254	0.039583175175773255	0.9813184971669351	-0.13787097633430462	-0.1341849507308986
29509	134.1101183611111	0.13828020408569144	0.021020280876985244	0.990170052541417	-0.13348346985250387	-0.9902570225242089	0.0396634922519975	0.981356585770002	-0.13765601016062184	-0.13412708314320254
29510	134.11454874305554	0.1381990324250571	0.021168072791424346	0.990178236546873	-0.13322660444044193	-0.9902875493332024	0.03976482748498328	0.9814029240358152	-0.13741354492893854	-0.13403663067987992
29511	134.11897912499998	0.13820547277768647	0.02129639241225874	0.9901745861031375	-0.13280842404732057	-0.9903408199873631	0.03983695230341899	0.9814586949007909	-0.13700921113918174	-0.13404218092322978
29512	134.12340950694443	0.1382076124225653	0.021385583029237973	0.9901723651501053	-0.13237037854647676	-0.9903982706193867	0.039866633135878404	0.9815175692527955	-0.13657936298221557	-0.1340497626087258
29513	134.12783988888887	0.13820312479552466	0.021491097031964716	0.9901707070223372	-0.1319638838804954	-0.9904505254839511	0.03991603587206771	0.9815729364891473	-0.13618329309033372	-0.13404730894406086
29514	134.13229470833335	0.13829278984738813	0.021550363777190037	0.9901568997372572	-0.13165418436637416	-0.990490553870045	0.03994544320740839	0.9816018948713634	-0.13588246581248914	-0.1341405064462886
29515	134.1367495277778	0.13838243525247998	0.021609657972871454	0.9901430827389992	-0.1313444696490978	-0.9905304861394058	0.039974821088151424	0.9816307513042725	-0.13558163117003708	-0.1342337117980486
29516	134.14117572222221	0.13846917197281788	0.02164621448351422	0.9901301580154481	-0.13103045363328986	-0.9905718485208413	0.03998040943584713	0.981660485419382	-0.13527325795048095	-0.13432735034104604
29517	134.14560191666666	0.13856961900880488	0.02175923506566948	0.9901136280130236	-0.13071660178529615	-0.9906099219562597	0.0400643549744405	0.9816881534914534	-0.13497599123981502	-0.13442414620658893
29518	134.1500281111111	0.13867464785218547	0.021721082968422283	0.9900997609320747	-0.13042495624032335	-0.9906509364125033	0.04000066217876991	0.9817121130111323	-0.13468079573461572	-0.13454519845579277
29519	134.15445430555556	0.13887753548291398	0.021809129820863457	0.9900693874646609	-0.13013462360938488	-0.9906860414869662	0.04007676310443531	0.9817219615941348	-0.1344080691749645	-0.1347459129785475
29520	134.1588805	0.13906402238411336	0.021875780044647415	0.9900417404967274	-0.1298280292283836	-0.9907242388026801	0.040126867252806175	0.9817361562584038	-0.1341153715883775	-0.13493400831030938
29521	134.16333038194446	0.1393066787536131	0.021914798818977288	0.9900067630311226	-0.12948393545636472	-0.9907682628477559	0.04015170970671428	0.9817471974563358	-0.13378337313120814	-0.1351830217159919
29522	134.16775657638888	0.13948884055479782	0.021985995151236268	0.9899795348278104	-0.12917427746030957	-0.990806517469446	0.04020511139986521	0.9817621246530572	-0.13348805548541948	-0.13536642729804327
29523	134.17218277083336	0.13979732172187953	0.02200648901322426	0.9899355652165954	-0.12879854816384345	-0.9908550010392984	0.040215679856224706	0.9817676114184433	-0.133124307910776	-0.13568447152493718
29524	134.17660896527778	0.14005285379032292	0.022001004874402284	0.9898995675974928	-0.12840994208426215	-0.9909064361508776	0.040191063293766593	0.9817820964547597	-0.13274181925558964	-0.13595412646041127
29525	134.18103515972223	0.14036002000070635	0.02205415961326266	0.9898548776609398	-0.12802452006669268	-0.9909546304614649	0.040232357980542144	0.981788565347496	-0.13237271021904118	-0.13626693855140148
29526	134.18546135416668	0.14062282170460813	0.022112446478590217	0.9898162767537041	-0.12767860381699847	-0.9909974016742058	0.0402780833992229	0.9817960053611829	-0.13204237799170504	-0.13653356463199723
29527	134.18989879861113	0.140952809167308	0.02217123227134498	0.9897680243609683	-0.12730239271647759	-0.9910437315200322	0.040328935313373004	0.981797538393993	-0.13168431445855866	-0.13686794704778488
29528	134.19433624305555	0.14128275860736528	0.02223013838691252	0.9897196588264738	-0.12692614734933505	-0.9910899233940873	0.04037965905944585	0.98179882625686	-0.131326252874286	-0.13720233258458564
29529	134.1987624375	0.14158548749024902	0.022294053633108823	0.9896749592188097	-0.12663624666011541	-0.9911243992845955	0.04044361722927253	0.9817926516143758	-0.13105495151024843	-0.13750559596125345
29530	134.20318863194444	0.14194036138466967	0.022347531278733145	0.9896229189220184	-0.12618566844180812	-0.9911803253212812	0.04048135096428118	0.9817994249794015	-0.1306221671147179	-0.13786855540104603
29531	134.2076148263889	0.14222900387445336	0.02242708705047175	0.9895796765411622	-0.12579115262584362	-0.9912279107680169	0.040543986428742906	0.9818082788293967	-0.13024689893008184	-0.1381602292309716
29532	134.21204102083334	0.14257954539964682	0.0224953742156482	0.9895276809531546	-0.1253987183129367	-0.9912751929131813	0.04060361265217588	0.9818076362908892	-0.1298747475602287	-0.13851467527689643
29533	134.21646721527776	0.14293983848195585	0.022456148434135327	0.9894765909167619	-0.12516072447233784	-0.9913063031373986	0.040578398312694997	0.9817856159184204	-0.12964387666823413	-0.13888653504972975
29534	134.2209199409722	0.14326996289816663	0.02248513285363292	0.9894281866470716	-0.12496460123146436	-0.9913292064473249	0.04062330468558578	0.9817624795082662	-0.12946359814662706	-0.1392178529668865
29535	134.22537266666666	0.14360006560463076	0.022514177885750997	0.9893796707798654	-0.12476845862040531	-0.991352073547533	0.04066814486173992	0.9817391980010957	-0.12928332478373233	-0.13954916352680163
29536	134.22979886111108	0.14392619891683972	0.02251537504791791	0.989332253164629	-0.12451725305426081	-0.9913833107101242	0.04067658954797504	0.9817233332039996	-0.1290433614405826	-0.1398824789276472
29537	134.23422505555556	0.14426749863285243	0.022440327052636953	0.9892842465944713	-0.12424346908866113	-0.9914205026651641	0.040607231917089925	0.9817079246023406	-0.12877041048674226	-0.14024169193232466
29538	134.23865124999998	0.1445539309073919	0.022347306075129844	0.9892445395201357	-0.12391288268576411	-0.991466084395058	0.040504333087162836	0.9817075728360891	-0.12843520313962314	-0.14055120074463517
29539	134.24307744444445	0.1448892824613255	0.022119059017503377	0.9892006080952552	-0.12390042897440207	-0.9914752456118407	0.0403177509156899	0.9816597065825824	-0.1284039896853702	-0.14091357601408722
29540	134.24750363888887	0.14520884428092445	0.02187801250952088	0.9891591096033195	-0.12390084560362452	-0.9914832921646902	0.04011809837186425	0.9816124347222306	-0.12838315281570634	-0.14126143872902458
29541	134.2519258645833	0.14554690916124496	0.02163264647944181	0.9891148193409619	-0.12385020846182448	-0.9914980508250175	0.03990916027873215	0.9815687561743043	-0.1283107314938483	-0.14163026896092035
29542	134.25634809027778	0.14588496797571399	0.02138730429234896	0.9890703510538728	-0.12379964235648544	-0.9915127546248981	0.03970020111476358	0.9815249485729494	-0.12823821829412962	-0.14199906583360306
29543	134.26077428472223	0.14619967642925272	0.021212039209078604	0.9890276558340392	-0.12356181762628582	-0.9915491713707574	0.03953122789458158	0.9815080905610867	-0.1279855075645574	-0.14234316989786455
29544	134.26520047916668	0.14650748424042875	0.021048293418871766	0.9889856047515017	-0.12331050931065379	-0.99158683981005	0.039370768459170036	0.9814937979198277	-0.1277204308623779	-0.14267941752488628
29545	134.2696266736111	0.14681830374907737	0.020900286048023964	0.9889426493621127	-0.1231027386019724	-0.9916181297056468	0.03923264696359108	0.9814734338905655	-0.12750161913554692	-0.14301480932013932
29546	134.27405286805558	0.14718010237425144	0.020707366358254375	0.9888929276942019	-0.12311041424254426	-0.9916229107903528	0.03908744940127784	0.9814182815548803	-0.12749591277438388	-0.1433978690765404
29547	134.2784790625	0.1475186910973499	0.02051732838397788	0.988846436517273	-0.12326566440411169	-0.9916084931290337	0.03896373099923345	0.9813479565148837	-0.127638691588216	-0.14375170487236216
29548	134.28293178819445	0.14781160090388717	0.020298380630411728	0.9888072139613533	-0.12355376451154115	-0.9915780920474454	0.03882466544060803	0.9812676484595104	-0.12790958961442828	-0.14405880386637926
29549	134.2873845138889	0.14810443320205036	0.02007935138128146	0.9887678678608073	-0.12384189573804022	-0.9915475794644759	0.038685688802804985	0.9811871695685325	-0.12818040921391277	-0.1443659273092031
29550	134.29181070833332	0.1484167760649902	0.019883745234148903	0.988724985654726	-0.12417526206910529	-0.9915100190901149	0.03857961034003482	0.981097836544625	-0.12850104559645947	-0.14468765119412602
29551	134.2962369027778	0.14872737964900823	0.01975493482779682	0.988680893459912	-0.12443185556472502	-0.9914798118282514	0.03852915853915334	0.9810182872217317	-0.12875373892421643	-0.14500205119092452
29552	134.3006630972222	0.14908336993979326	0.019534434827897545	0.988631657728676	-0.12458905545113241	-0.9914659261092136	0.0383781790369746	0.9809442981480598	-0.12889423268848782	-0.14537730466086007
29553	134.30508929166666	0.14944968906950512	0.019400597591705593	0.9885789838197617	-0.12462006152575583	-0.9914651747220128	0.038296835101160887	0.9808846164062035	-0.12892022388490243	-0.14575645841993262
29554	134.3095154861111	0.14983571223324096	0.019300076180350872	0.9885225168902273	-0.12464004319191307	-0.9914644754936084	0.0382498819253293	0.9808231843572395	-0.12894068750249577	-0.1461512235108154
29555	134.31396536805556	0.15026796873349585	0.019257771259126352	0.9884577258632967	-0.12443989923462595	-0.9914902075839287	0.03823453600678306	0.9807824677527557	-0.12874900586532328	-0.14659278439781992
29556	134.31839156249998	0.15071684147685815	0.019227055009191862	0.9883899807519869	-0.12414019285959826	-0.9915284184804336	0.03821789976532097	0.9807515721180473	-0.12845900397155458	-0.14705318115095217
29557	134.32281775694446	0.1512066089580263	0.019177996833709188	0.9883161264721227	-0.12389031475425732	-0.9915605364819575	0.03819545001310931	0.9807077807978815	-0.1282182004594477	-0.1475545382339537
29558	134.32724395138888	0.15161284206929093	0.019156418039781006	0.9882543082463933	-0.12363780572220812	-0.99159230225598	0.03818899190712127	0.980676929021923	-0.12797553576590254	-0.1479696696271247
29559	134.33167014583336	0.15205035900314157	0.019125197791006812	0.9881876922611769	-0.12347730295096704	-0.9916122369697695	0.03819066833357121	0.9806294121547501	-0.12782565588043981	-0.14841346878152445
29560	134.33609634027778	0.1524635093333584	0.019105894222900655	0.9881244067058055	-0.12339554342435005	-0.9916215565569568	0.038212935435103124	0.9805755545518997	-0.12775622637469125	-0.148828520243038
29561	134.3405338159722	0.1529023302312954	0.01909368297278373	0.9880568347419977	-0.12335544488477096	-0.9916250409711846	0.03825195859269187	0.9805122700033491	-0.1277310040257713	-0.14926646972260132
29562	134.34497129166667	0.15334112133037192	0.01908148302545465	0.9879890675076793	-0.12331532891984726	-0.9916285250736341	0.038290963864585637	0.9804487901785255	-0.127705776164739	-0.14970439062241142
29563	134.3493974861111	0.1537762594595844	0.018992353718668933	0.9879231511240354	-0.12333639309390454	-0.9916270380231875	0.03826162045635073	0.9803779863732174	-0.1277306069882429	-0.1501462482821685
29564	134.35382368055556	0.1541673295883506	0.018892669892212485	0.9878641108532796	-0.12345156008687158	-0.9916139115012632	0.03823039143512014	0.9803020691601718	-0.1278472429953375	-0.1505421391464088
29565	134.35824987499998	0.1545752263299785	0.018809200671383586	0.9878019606050292	-0.12359546957839368	-0.9915963018531472	0.03822216700893405	0.9802196995086012	-0.12799604728766467	-0.150951490797546
29566	134.36267606944443	0.15496786149197694	0.01868530628437609	0.9877427910309762	-0.12375002164751098	-0.9915789148851075	0.038173127950346775	0.9801382015036677	-0.12814879977718102	-0.15135055688309818
29567	134.36710226388888	0.15531008304154886	0.018557807998088927	0.9876914426418474	-0.12386426674614542	-0.9915671656743651	0.03810773386002381	0.9800696003494178	-0.12825819162460045	-0.15170172956205974
29568	134.37153067361112	0.15560418004967305	0.018529459483375865	0.9876456845864933	-0.1236239082051116	-0.9915982021462633	0.0380806357666581	0.9800532987910215	-0.12802212555473635	-0.15200614098543602
29569	134.37595908333333	0.1558982697549513	0.018501181821851675	0.9875998358437529	-0.12338355070535184	-0.9916291813806621	0.038053463044226354	0.980036850788149	-0.1277860434692037	-0.15231053211033857
29570	134.38038749305557	0.1561923521136382	0.018472975017722618	0.9875538964204454	-0.1231431942826185	-0.9916601033729531	0.03802621569677023	0.9800202563432465	-0.12754994540311887	-0.15261490289148982
29571	134.38481590277777	0.1564864270819829	0.018444839075185	0.9875078663234059	-0.12290283897266996	-0.9916909681185365	0.03799889372834342	0.9800035154587832	-0.1273138313916069	-0.15291925328360811
29572	134.3892443125	0.15678049461624194	0.01841677399842423	0.9874617455594812	-0.12266248481125835	-0.9917217756128209	0.03797149714301018	0.9799866281372489	-0.12707770146978892	-0.15322358324142166
29573	134.39367272222222	0.1570745546726666	0.018388779791615295	0.9874155341355324	-0.12242213183414191	-0.991752525851223	0.03794402594484608	0.9799695943811559	-0.12684155567279465	-0.1535278927196549
29574	134.39810113194446	0.1573686072075165	0.018360856458922284	0.9873692320584339	-0.12218178007707253	-0.991783218829169	0.03791648013793747	0.9799524141930385	-0.1266053940357501	-0.1538321816730432
29575	134.40252954166667	0.15766265217704412	0.018333004004499664	0.9873228393350734	-0.12194142957580739	-0.9918138545420923	0.03788885972638267	0.9799350875754519	-0.12636921659378964	-0.15413645005631565
29576	134.4069579513889	0.15795668953751177	0.018305222432490054	0.9872763559723525	-0.12170108036609867	-0.9918444329854366	0.03786116471428974	0.9799176145309743	-0.12613302338204396	-0.15444069782421416
29577	134.41138833333332	0.15822326449664548	0.018313096351210506	0.9872335230704314	-0.12153615730345935	-0.9918640313014393	0.037877511512326045	0.9798950765464299	-0.1259776722776258	-0.15471026161046247
29578	134.4158187152778	0.15843806404242544	0.018259488887670816	0.987200066312827	-0.12141219917837642	-0.9918809570612819	0.037831797602891626	0.9798757358732582	-0.12585212785152644	-0.1549347738956124
29579	134.4202490972222	0.15870570972310694	0.018276265546967707	0.9871567635481923	-0.12130553955329904	-0.9918926903955787	0.03786630181974304	0.9798456326253476	-0.12575718213079357	-0.15520202114519793
29580	134.42467947916668	0.15884998982218504	0.018213783956223792	0.987134711580688	-0.1211844025499238	-0.9919099151928698	0.037802919473136076	0.9798372422561361	-0.12563032363275362	-0.15535765340600333
29581	134.4291098611111	0.15902719974245155	0.0182471646885531	0.9871055620970349	-0.12110483941720868	-0.991917964242321	0.03784666541588133	0.979818333984319	-0.1255619098062719	-0.15553211627826286
29582	134.43353880555557	0.15918383903179598	0.01822385485635465	0.987080744673542	-0.12105449768581855	-0.9919245384845594	0.03783541386357925	0.9797991191979781	-0.12551335015196063	-0.15569227647027944
29583	134.4379691875	0.15934593860616292	0.018329422067465406	0.9870526349371618	-0.12095495942387818	-0.9919324362488728	0.037946537498750044	0.9797850629809017	-0.12543553804264884	-0.1558433705855411
29584	134.44239956944446	0.15953024399578147	0.01834462193415426	0.9870225813509739	-0.1210763139344857	-0.9919153983317208	0.038004851748980495	0.9797400815801529	-0.1255679791926151	-0.15601940631472305
29585	134.44682995138888	0.15977695141530102	0.018394477285274588	0.986981747045929	-0.12116623394158821	-0.9919007267546482	0.03810107631042742	0.979688761571166	-0.1256765350771663	-0.15625408468949836
29586	134.45126033333335	0.15997181466621166	0.01847581389457449	0.9869486627040601	-0.12130695880442299	-0.9918785495452124	0.038230415871503776	0.979639546087244	-0.1258395297711301	-0.15643136670425017
29587	134.45569071527777	0.1601916730452571	0.018559961661590463	0.9869114224235536	-0.12134612051039628	-0.9918691570104576	0.03834963374585082	0.9795987683353006	-0.1259011643889158	-0.15663700035903827
29588	134.4601177222222	0.1604045331068126	0.01870166325452241	0.9868741731093688	-0.12140699225694096	-0.9918547452725676	0.03852929419822887	0.9795563934709981	-0.1259936985400661	-0.15682748463928903
29589	134.46454472916668	0.1606173950488532	0.018843344240282292	0.9868368562156375	-0.121467824482897	-0.99184030146408	0.03870896546067004	0.9795139713261434	-0.12608625924138367	-0.15701794549478032
29590	134.4689751111111	0.16081356442986788	0.018900109478972763	0.9868038221232444	-0.12160241928971582	-0.9918197428874377	0.03881300351152289	0.9794650831541923	-0.12623938957544173	-0.15719976908816047
29591	134.47340549305557	0.16103362024805862	0.018975681248811146	0.9867664853808868	-0.12187876415085158	-0.9917799849717146	0.03896188212300783	0.9793945782976674	-0.12654005267364776	-0.15739718889003473
29592	134.47783587499998	0.1611467287193457	0.019051396280423016	0.9867465612419533	-0.1221885770125809	-0.9917363291857719	0.03910249379222153	0.9793373695875667	-0.12687039714959697	-0.15748720219881168
29593	134.48226625694446	0.16123402429469286	0.019090573677900485	0.9867315437373974	-0.12253055558239678	-0.9916899593440902	0.039208257864717655	0.9792802726280194	-0.12722646946593175	-0.1575549843985481
29594	134.48669663888887	0.16132832800359004	0.01912902997772957	0.9867153848986432	-0.12289814477734606	-0.9916401110260191	0.03931839537152182	0.9792186765957097	-0.1276086612123799	-0.15762871879746876
29595	134.49113889583333	0.1614188040280395	0.019250135937899912	0.9866982324766421	-0.12327192575010804	-0.991586013424461	0.03951215386238138	0.9791567811275257	-0.12801019587266094	-0.1576876270498917
29596	134.49558115277776	0.16150932465390924	0.019371204307343043	0.9866810500326445	-0.12364566978153513	-0.9915317378491527	0.03970593384011045	0.9790947279983251	-0.12841171785130384	-0.15774645582187724
29597	134.5000115347222	0.16151302633437664	0.01946897198204814	0.9866785198099094	-0.12397102729737208	-0.9914850463347082	0.03985708576271302	0.9790529744171894	-0.1287569882554896	-0.15772416194175998
29598	134.50444191666665	0.161591873613743	0.019563869691943056	0.9866637326793141	-0.12426305486819411	-0.9914423324471419	0.04000993159948385	0.9790029415567781	-0.12907112936070492	-0.157777957867149
29599	134.5088722986111	0.16160567825475108	0.019714621528300225	0.9866584710292704	-0.12462722735370307	-0.9913880423800907	0.04022192968891347	0.9789543702123966	-0.12946460181751362	-0.15775695838308473
29600	134.51330268055554	0.16165131735570282	0.019900745918128362	0.9866472580963613	-0.12491785641730346	-0.9913417007666756	0.040461852023118416	0.9789097919345131	-0.12979057220359597	-0.1577657333573781
29601	134.51773306249999	0.161693267611479	0.020084807053119796	0.9866366543640884	-0.12515578271275818	-0.9913023225739763	0.0406907276046638	0.9788724724205291	-0.1300626994379212	-0.1577731819804667
29602	134.52216006944445	0.16173370380071309	0.0202684279610596	0.9866262716362719	-0.1254817798426468	-0.99125112812204	0.04093316411303316	0.9788240556823401	-0.13042389284471745	-0.15777539793264644
29603	134.5265870763889	0.16177420027658068	0.020452033004133896	0.9866158434116445	-0.12580775173830633	-0.9911997677620767	0.041175599460822054	0.9787755195791452	-0.13078507076269524	-0.15777752545331475
29604	134.53101745833334	0.16173114565111435	0.020608732011260275	0.986619641346789	-0.1261573944984858	-0.9911466646572016	0.041383583124941115	0.9787376299804417	-0.13116237762328609	-0.15769934164883198
29605	134.53544784027778	0.16171539371569282	0.020701700314512766	0.9866202770263068	-0.12645474881339047	-0.9911029497527254	0.0415227587473298	0.9787018585544428	-0.1314776885845455	-0.15765877541876483
29606	134.53987822222223	0.1617068711989566	0.020881274844286507	0.9866178896451866	-0.12669813206938108	-0.991062690179895	0.041741196239677425	0.9786717892823793	-0.1317524819282999	-0.1576160282730132
29607	134.54430860416667	0.1616348872187714	0.021025295937701624	0.9866266265231782	-0.12676052647601455	-0.9910485948999601	0.041886172829927015	0.9786756010861305	-0.13183557743472352	-0.15752285028259994
29608	134.54873898611112	0.1616207656785631	0.021243397756987525	0.9866242679729775	-0.1267103669264295	-0.9910461498997648	0.042095269119257595	0.9786844287178809	-0.13181899263987545	-0.15748187884504006
29609	134.55317147743057	0.16154296878286883	0.021510399933061808	0.986631223878272	-0.126570694028031	-0.9910539793020534	0.04233047983223831	0.9787153460787664	-0.13171679013810156	-0.15737521579218144
29610	134.55760396875002	0.16146513287284148	0.02177739260045472	0.9866381079392187	-0.12643103781906323	-0.9910617304689926	0.04256570304600765	0.978746240627442	-0.13161455683674184	-0.15726857564789543
29611	134.56203646006946	0.16138725795529435	0.02204437573579618	0.986644920155215	-0.1262913983117509	-0.991069403399903	0.04280093873997631	0.9787771123612026	-0.13151229274474507	-0.15716195842151653
29612	134.5664689513889	0.16130934403704328	0.022311349315716697	0.9866516605256646	-0.12615177551831652	-0.9910769980941136	0.04303618689355371	0.9788079612773464	-0.13140999787106256	-0.1570553641223763
29613	134.57090144270833	0.16123139112490964	0.022578313316845802	0.9866583290499772	-0.12601216945098237	-0.9910845145509594	0.0432714474861467	0.978838787373173	-0.13130767222464879	-0.1569487927598071
29614	134.57533393402778	0.1611533992257151	0.022845267715819254	0.9866649257275696	-0.125872580121967	-0.9910919527697826	0.04350672049716553	0.9788695906459843	-0.13120531581445938	-0.15684224434313504
29615	134.57976642534723	0.161075368346287	0.023112212489268494	0.9866714505578638	-0.12573300754348948	-0.9910993127499317	0.043742005906015013	0.9789003710930837	-0.13110292864945428	-0.15673571888168725
29616	134.58419891666668	0.16099729849345568	0.023379147613827256	0.9866779035402892	-0.12559345172776665	-0.9911065944907631	0.04397730369210007	0.9789311287117775	-0.13100051073859564	-0.15662921638478822
29617	134.5886251111111	0.1608371463267957	0.023584737955742965	0.986699129672775	-0.12545119637726626	-0.9911173983768586	0.044139550996808385	0.9789756941257354	-0.13088186570432964	-0.1564497604369796
29618	134.59305130555558	0.16067101870479714	0.023823243660977544	0.9867204653851227	-0.12523980149672037	-0.9911359430720663	0.04432306929476065	0.9790300382876029	-0.13069810791329683	-0.1562632033412199
29619	134.5974775	0.16043325661885832	0.02404164218784631	0.9867538546221034	-0.12491658174038872	-0.9911706412281729	0.04445905502402442	0.9791103195130588	-0.13039462952224695	-0.15601353407570656
29620	134.60190369444445	0.1602325837234755	0.024207473162309326	0.9867824062864092	-0.12448788130647687	-0.9912213658225175	0.04453056640969377	0.9791977770201097	-0.1299776987795972	-0.15581242344189494
29621	134.6063298888889	0.159989739752946	0.024395788185459386	0.9868171708541534	-0.12406103402646923	-0.9912708795285048	0.04461953871420338	0.9792916537018317	-0.12956422699802322	-0.1555666033322604
29622	134.61076736458335	0.1597936786493751	0.024611955741246472	0.986843570125626	-0.12349127558164236	-0.9913374829774212	0.044720238139014656	0.9793956734226055	-0.1290125826366647	-0.15537010137892898
29623	134.61520484027778	0.15959748668329113	0.02482801222908003	0.9868699063468951	-0.12292149696297583	-0.9914037416665085	0.04482105079120974	0.9794993352875528	-0.12846085325265327	-0.15517364902857195
29624	134.6196310347222	0.15943665325797057	0.02512788909613939	0.9868883132287414	-0.12219317112802225	-0.9914863087961969	0.04498586888535955	0.9796166508015143	-0.12776340892158844	-0.1550088023731539
29625	134.62405722916665	0.1592047578879236	0.02535229080516331	0.9869200101410338	-0.12143492799191652	-0.9915760443664645	0.04506114182034621	0.9797486429331994	-0.1270205085389195	-0.1547849704624728
29626	134.6284834236111	0.15901843048073222	0.02555316759429238	0.9869448689736132	-0.1207178242180516	-0.9916606736309475	0.04512555029996784	0.9798675143525803	-0.12631763138894486	-0.15460760109639665
29627	134.63290961805555	0.1588643588261095	0.0258037396875698	0.9869631616797587	-0.11999455117418001	-0.991743084328603	0.04524336829743253	0.9799813381811291	-0.1256177603069174	-0.1544563210496664
29628	134.6373358125	0.1587536155292254	0.02606900842188757	0.9869740099700186	-0.11923512252190743	-0.9918286134334141	0.045376063424859725	0.980091972782955	-0.12488558113189324	-0.15434803695468458
29629	134.64177328819443	0.1585954073470302	0.026290244331466747	0.986993576383059	-0.11843424808379543	-0.9919210812218668	0.045452145257056376	0.9802146834491183	-0.124102343574303	-0.15420046261315212
29630	134.6462107638889	0.15843701646675623	0.026511353243137165	0.9870131001979308	-0.1176333092263237	-0.9920128901379561	0.04552834678092055	0.9803367362154582	-0.12331899265464841	-0.15405294439596362
29631	134.6506369583333	0.15829497778831408	0.026702438612646193	0.9870307390244414	-0.11681361157732789	-0.9921076617747888	0.045573759972402594	0.9804576891213911	-0.12251272268584545	-0.1539264519919913
29632	134.65506315277776	0.15815280586841812	0.02687802115204317	0.9870487637269483	-0.11598344359333124	-0.9922037500065503	0.045602185092074254	0.9805791813046916	-0.12169342813763434	-0.15380240160651398
29633	134.6594893472222	0.15805522505179703	0.02708747437098738	0.9870586682492725	-0.11517651153274466	-0.9922944368128945	0.04567408303763182	0.9806900208653975	-0.12090500156065531	-0.15371747972382527
29634	134.66391554166665	0.15794932058832506	0.027203300965599087	0.9870724353066809	-0.11441380885853292	-0.9923834104912925	0.045657933857698785	0.9807963562677879	-0.1201463565749954	-0.1536338521732254
29635	134.66834173611107	0.15788963162654773	0.027318591721638294	0.9870788006897826	-0.11377537811077004	-0.9924564128136348	0.04566653042265534	0.9808802309969267	-0.11951553543970117	-0.15359039432196658
29636	134.67277921180556	0.15779059652254016	0.0273740528705316	0.9870931004107478	-0.11327085614213872	-0.9925157457927956	0.04563121192996994	0.9809545559290136	-0.11900905672599998	-0.15350896918193369
29637	134.67721668750002	0.15769153178724457	0.027429462907920366	0.9871073930262986	-0.11276630080300754	-0.9925748193867323	0.04559593537368284	0.981028614366471	-0.11850254209922428	-0.153427524617402
29638	134.68164288194444	0.15768151370413486	0.0274055636074967	0.9871096571907947	-0.11236962949529045	-0.9926238104690647	0.04550865035315227	0.9810757394834834	-0.11809701932406996	-0.1534388719448443
29639	134.6860690763889	0.15757102978984594	0.027346844236058807	0.9871289280946521	-0.11215807070946077	-0.9926525674978437	0.04540316524947585	0.9811176982124519	-0.11786869962067259	-0.1533461179946612
29640	134.69049527083334	0.1574642130502663	0.027135877675400988	0.9871517946857241	-0.1119543136504475	-0.992687284289791	0.04514628738243093	0.9811581183802729	-0.1176248262576634	-0.15327474346524594
29641	134.6949214652778	0.15729596407732926	0.026960566381387274	0.9871834214295633	-0.11181400413490794	-0.992713009734469	0.044927817477052545	0.9812011048527731	-0.1174478955295809	-0.1531351810374425
29642	134.6993476597222	0.15713510162724775	0.026692530364375758	0.987216323132545	-0.11171827181336952	-0.9927374913291203	0.0446239963763812	0.9812377834040171	-0.11730209773193351	-0.1530118632265463
29643	134.70379747916667	0.1569365784950159	0.026405048174265824	0.9872556324281936	-0.11170406015021977	-0.9927532069336389	0.044308837368317755	0.981271172141643	-0.1172341398820782	-0.15284974049659217
29644	134.70822367361112	0.1566644242490966	0.02612427974015326	0.9873063254040041	-0.11170368953134657	-0.9927672608737995	0.04399376640181801	0.9813147017750132	-0.11717801732915356	-0.15261313290482242
29645	134.71264986805556	0.156395553589862	0.025941542748301724	0.9873537700222542	-0.11165239690348394	-0.9927829311834637	0.04376978200170478	0.9813634255886182	-0.11708581430134013	-0.15237040068978153
29646	134.7170760625	0.15602211393428056	0.02572119869332605	0.9874186143177863	-0.11160375347280282	-0.9928004371742762	0.04349590966226724	0.9814283989034862	-0.1169859473797803	-0.15202824060481346
29647	134.72150225694446	0.15565904403617664	0.025494111802873032	0.987481803514944	-0.11160281232635483	-0.9928124208364255	0.0432239437553425	0.9814861559342505	-0.11693394415779867	-0.1516950177596771
29648	134.72592845138888	0.1553342832812053	0.025317852651209782	0.9875374761368025	-0.11161271705273385	-0.9928206259042432	0.04300937306231012	0.9815364801318496	-0.11690257104203594	-0.15139328602729102
29649	134.73035067708332	0.1549084562436454	0.025237343697563336	0.9876064229576993	-0.11176138870937563	-0.992808619073592	0.04290032502137092	0.9815868592121446	-0.11702188844946276	-0.15097388994709998
29650	134.7347729027778	0.15448258874833795	0.025156886310585075	0.9876751798262263	-0.1119100113927094	-0.9927965861291908	0.04279121312031631	0.9816370404195718	-0.11714123800515769	-0.15055447929212695
29651	134.7391990972222	0.1540506474721146	0.025129808179535182	0.9877433324271452	-0.1123779602420345	-0.9927440479201561	0.0427837512490693	0.9816514616019588	-0.11759144552203737	-0.15010882677169818
29652	134.74362529166666	0.15356989095748708	0.025154617251904973	0.9878175610011272	-0.11293975616009705	-0.99267802000786	0.042836433929219875	0.9816623146835184	-0.1181422609576469	-0.14960449894977046
29653	134.7480514861111	0.15312425373628946	0.025149093434977524	0.9878868791603133	-0.1135417818083001	-0.9926079582447993	0.04286846175088527	0.981662481050132	-0.11873063769932979	-0.14913687997946612
29654	134.75247768055556	0.1526713587262366	0.025163142319828746	0.9879566146816756	-0.1142263018788483	-0.9925267064127006	0.04293121261552235	0.9816536090616521	-0.1194049970736108	-0.14865610814925828
29655	134.75690387499998	0.15218833248357178	0.025282386899708645	0.98802809290451	-0.11493969770148887	-0.9924370441747126	0.04309964317775661	0.9816453419377896	-0.1201229131448826	-0.1481313889404497
29656	134.76135660069443	0.1517300029561276	0.025414041117777342	0.9880952042779065	-0.11566201453258979	-0.9923450899894299	0.04328418612072171	0.981631450493105	-0.12085259156482425	-0.14762908424449867
29657	134.76580932638888	0.15127173432534188	0.02554603550447665	0.9881620628541693	-0.11638435502794076	-0.9922525805997084	0.04346835858356629	0.9816168011494779	-0.12158213833957404	-0.1471266098904046
29658	134.77023552083332	0.15080499232852038	0.025805222027826646	0.9882266667141145	-0.11696989551107406	-0.9921709931748957	0.043758014654114386	0.9816190186793059	-0.12219169701103205	-0.14660590489008568
29659	134.77466171527777	0.1504369861038753	0.025979895838275743	0.9882781785632094	-0.11758720104823894	-0.9920882362931268	0.04397933103668311	0.9816017335771283	-0.12282498288632282	-0.14619186098189962
29660	134.7790879097222	0.15003901868162473	0.02625328845023979	0.9883314513454499	-0.11820380888544235	-0.9920008987778004	0.044295331458404585	0.9815885861388307	-0.12347057005450579	-0.14573560269332436
29661	134.78351410416667	0.14970714984901312	0.0264845802905158	0.9883756048643251	-0.11889755881853736	-0.9919048608881869	0.04458831072578345	0.9815554695436614	-0.12419063552950282	-0.14534629770207647
29662	134.7879402986111	0.14938873124510782	0.026602236336114242	0.9884206230137527	-0.11971181914240447	-0.9917980002073881	0.04478623831315398	0.9815050113649924	-0.12501619017768822	-0.14497884279736434
29663	134.79237777430555	0.1491238867094627	0.026826504224956103	0.9884545538787972	-0.12042166820197825	-0.9916986592663162	0.045082047833300276	0.9814584495739573	-0.12575415651365057	-0.14465546612355956
29664	134.79681525	0.1488591901341189	0.027050969456749965	0.9884883340556249	-0.1211315320837244	-0.9915987210024925	0.04537762048930255	0.9814112764013181	-0.1264919821872973	-0.1443318571718129
29665	134.80124144444443	0.14872562164591385	0.027197365593503664	0.9885044222312868	-0.12181038592444543	-0.9915050367844103	0.04560692833422597	0.9813475018294868	-0.1271930239278823	-0.14414928136174315
29666	134.8056676388889	0.14861100661003995	0.0273911308053017	0.9885163097630498	-0.12250276710802593	-0.9914067610181168	0.04588797509635423	0.9812786764040211	-0.12791544144775374	-0.1439784673970343
29667	134.81009383333333	0.14850264374107752	0.02743962565176984	0.9885312497569321	-0.12339276998816773	-0.9912887336468732	0.04605291369095188	0.9811835654537626	-0.1288165885624591	-0.14382314624069514
29668	134.8145200277778	0.14840584727415668	0.027410494787551254	0.9885465943850809	-0.12433949697780228	-0.9911659302989065	0.04614962736588868	0.9810786889878647	-0.12976426083558185	-0.14368661254149018
29669	134.81894622222222	0.14833711918852485	0.02736057002237982	0.9885582928077129	-0.12529986421803624	-0.9910411875704279	0.04623103466220141	0.9809668919478328	-0.13072399835931586	-0.14357991905263962
29670	134.82339610416665	0.1483160551450609	0.027240817218056088	0.9885647604803135	-0.12623232209242874	-0.9909222144612111	0.04624462937945217	0.9808505230897114	-0.13164764625538128	-0.14353100219136428
29671	134.8278222986111	0.14827593280415213	0.02705071905537408	0.9885759992785815	-0.1269959558700871	-0.9908285644656206	0.04616040545359407	0.9807580103897706	-0.1323896311558595	-0.1434806977217284
29672	134.83224849305554	0.14819950151242967	0.026920349779105505	0.9885910188339959	-0.12765645120876162	-0.9907457528352495	0.046115981001166484	0.9806838115398115	-0.1330343865573314	-0.14339147037764155
29673	134.83667468749996	0.14819153397745674	0.026794728515610843	0.9885956260176267	-0.12822737382182942	-0.9906740468399693	0.046072481162569956	0.9806105291399667	-0.13359257255361656	-0.14337368900304415
29674	134.84110088194444	0.14817833199284441	0.026600872827346342	0.9886028401196519	-0.1290714410342278	-0.990567806399351	0.045999826461911864	0.9805017822712851	-0.13441657074185998	-0.14334727228947286
29675	134.84552707638886	0.14816303441973924	0.02641521345746245	0.9886101110799607	-0.12991373766327124	-0.9904607066873352	0.045934837267411155	0.980392847790055	-0.13523987949721605	-0.14331796466488278
29676	134.84996452083334	0.1481249495881479	0.026198107613077178	0.988621595185439	-0.13080372444691418	-0.9903478597833988	0.0458421453823557	0.9802802583854906	-0.13610575219267895	-0.14326841675589458
29677	134.8544019652778	0.14808666958983888	0.02598103498981326	0.9886330583743637	-0.13169360400921332	-0.9902342078320187	0.04574940767221869	0.9801668903573791	-0.1369715279178576	-0.14321894981807803
29678	134.8588281597222	0.14798403961833992	0.025759232982627042	0.9886542297155182	-0.13256834249610439	-0.9901225015589871	0.045640623072097264	0.9800644665459888	-0.13781833630805607	-0.14310746867723706
29679	134.86325435416668	0.14786404050375695	0.025568307252017072	0.9886771400159758	-0.13334646460994914	-0.9900223620141635	0.04554605458131311	0.9799770129456764	-0.13857122492120355	-0.14297926325837002
29680	134.8676805486111	0.14776600088527858	0.025444237439670364	0.9886949983505962	-0.1336816135865953	-0.9899812650060829	0.04545680505534966	0.9799461389133874	-0.13888731302055474	-0.14288414576388248
29681	134.87210674305555	0.1476597510859825	0.025361558928949708	0.988712996393756	-0.1338786183041329	-0.9899578157767406	0.045387647477274584	0.9799352598361804	-0.13906945858540765	-0.14278155419576977
29682	134.8765329375	0.14750302333457024	0.025309032075048782	0.9887377362084375	-0.13396272147581112	-0.9899493073515879	0.04532502762167795	0.979947369689799	-0.13913957657523535	-0.1426300489676307
29683	134.88096753472223	0.1472856877397915	0.02543308654469708	0.9887669514581415	-0.13376243966683093	-0.9899734477675894	0.04538923274885237	0.9800074162583641	-0.1389450640503722	-0.14240692839410563
29684	134.88540213194443	0.14706831957693	0.02555709764545616	0.9887961084757355	-0.13356216651013914	-0.9899975396705698	0.04545348307155611	0.9800673737319979	-0.1387505178590661	-0.1421838132134075
29685	134.88983672916666	0.14685091886766855	0.025681065364956006	0.9888252072583112	-0.1333619020257124	-0.9900215830581265	0.045517778583380186	0.9801272421047207	-0.13855593802072214	-0.1419607034477925
29686	134.8942713263889	0.14663348563369522	0.025804989690828964	0.9888542478029658	-0.13316164623353033	-0.9900455779278603	0.04558211927791006	0.9801870213705595	-0.13836132455475303	-0.14173759911951822
29687	134.8987059236111	0.1464160198967032	0.02592887061071148	0.9888832301068013	-0.13296139915357158	-0.9900695242773772	0.04564650514872676	0.9802467115235495	-0.13816667748057448	-0.14151450025084378
29688	134.90314052083332	0.14619852167838365	0.02605270811224719	0.9889121541669276	-0.13276116080581007	-0.990093422104289	0.045710936189408136	0.9803063125577377	-0.13797199681760208	-0.14129140686402214
29689	134.90757511805555	0.14598099100043563	0.026176502183080853	0.9889410199804587	-0.1325609312102229	-0.9901172714062112	0.045775412393525894	0.9803658244671777	-0.1377772825852579	-0.14106831898131045
29690	134.91200971527775	0.14576342788456115	0.02630025281086229	0.9889698275445147	-0.13236071038678632	-0.9901410721807649	0.04583993375464779	0.9804252472459323	-0.13758253480296823	-0.14084523662496518
29691	134.91644431249998	0.14554583235246182	0.026423959983247876	0.9889985768562222	-0.13216049835547156	-0.9901648244255759	0.04590450026633791	0.9804845808880742	-0.13738775349015847	-0.14062215981723852
29692	134.92087050694442	0.1453881795571496	0.026628049059651514	0.9890162911946065	-0.13169370877842645	-0.9902216623767642	0.04601984819597599	0.9805707747599054	-0.13693796538241126	-0.1404597783128127
29693	134.92529670138887	0.14523744485343132	0.026829502312536745	0.9890329935943029	-0.13118747837117745	-0.9902838225406675	0.04612804280322241	0.9806609659464675	-0.1364482635283632	-0.14030659731115996
29694	134.92972289583332	0.1451396002894746	0.02710647965845933	0.9890398046531481	-0.13060553708890243	-0.9903523169923094	0.04630855115077781	0.9807531239356474	-0.13589527949303626	-0.14019908309963625
29695	134.93414909027777	0.14507720198542484	0.02733873990109431	0.9890425667102001	-0.13005158014772444	-0.9904184345597645	0.046453320497737094	0.9808359658807178	-0.13536586639476667	-0.14013168895733025
29696	134.9385752847222	0.14497907467845425	0.02752453904818339	0.9890518023114685	-0.12959906502922908	-0.9904726827751612	0.046561217979391445	0.9809103681014534	-0.1349305911435943	-0.14003065851702395
29697	134.94301276041665	0.14499644554713303	0.027718345488474808	0.9890438433669555	-0.12914959819235444	-0.9905251613485595	0.04669353298009865	0.980967080011073	-0.13450501127761655	-0.1400428144381482
29698	134.9474502361111	0.14501372850390523	0.027912158733251112	0.9890358587737077	-0.12870010367098628	-0.9905774194434549	0.046825841197174645	0.9810235990334142	-0.1340794073808333	-0.1400550272426218
29699	134.95187643055556	0.14509205557677268	0.028116706395707042	0.9890185772926433	-0.12827072057265926	-0.9906258082100148	0.046980105917569126	0.9810682533097672	-0.1336785657078683	-0.14012538463108554
29700	134.956302625	0.14519625930248847	0.02829166417985212	0.9889982952576306	-0.12782034433810813	-0.9906780805271018	0.04710520498230669	0.9811116174308876	-0.1332536022067402	-0.14022650120813773
29701	134.96072881944443	0.14534978747801328	0.02846826467770249	0.9889706755947502	-0.12744003596565684	-0.9907202471586447	0.04724858837029583	0.9811383574772563	-0.13290203074503348	-0.1403729807002676
29702	134.9651550138889	0.1454956693767705	0.028632319774179578	0.9889444880563087	-0.12711640711547284	-0.9907552418402054	0.047386388427578696	0.9811587176571682	-0.1326055844619869	-0.1405109594830098
29703	134.96958120833332	0.14566974212667477	0.028741095272781285	0.9889157070606519	-0.12680199793917768	-0.9907913434381996	0.04747385687471134	0.9811735725891628	-0.1323119919374232	-0.14068389119643532
29704	134.97403109027778	0.14589187895094657	0.02894392589789606	0.9888770443335103	-0.1265650646198651	-0.990812072316266	0.04767307175036767	0.9811711594181372	-0.1321124010301965	-0.1408881450658815
29705	134.97845728472223	0.1461555207917366	0.029015348934114164	0.9888360194027765	-0.12637532888140102	-0.9908324457130602	0.04775291375815116	0.9811563789693334	-0.13194382914144687	-0.14114880785638512
29706	134.98288347916667	0.14639617267878324	0.029058822235988553	0.9887991431404364	-0.12612145414108633	-0.9908628930290994	0.047792321803211635	0.9811531681803518	-0.1317053987817548	-0.14139359427285647
29707	134.98730967361112	0.14662313402839355	0.02918348988324993	0.9887618421469986	-0.12594938328223704	-0.9908784706692833	0.04792295081614567	0.9811413809530796	-0.13156055747197504	-0.1416100642579733
29708	134.99173586805557	0.14687385399744823	0.029342827807442885	0.9887199145704507	-0.12579323322963643	-0.9908900308725503	0.04809375417900852	0.9811239134205072	-0.13143798984182387	-0.14184470853990316
29709	134.9961620625	0.14710908944457596	0.029484053685447792	0.9886807403712593	-0.1255627391241796	-0.9909124722223777	0.04823350430736839	0.981118195910371	-0.13123704877971515	-0.14207013296667853
29710	135.00059953819442	0.1474185093235545	0.029607487311547866	0.9886309623939145	-0.1254854604891535	-0.9909147539293519	0.04838749477868276	0.9810816389652015	-0.13119202392001006	-0.14236386671176554
29711	135.00503701388888	0.14772790578073572	0.029730934561439534	0.988581072742009	-0.12540813323301087	-0.9909170130066898	0.04854146117404623	0.9810449867221429	-0.1311470352848414	-0.14265759413135742
29712	135.00946320833333	0.14801381914672285	0.02977624726718229	0.9885369413634905	-0.12558394118814586	-0.9908893843865381	0.048650813207182286	0.9809793999148269	-0.13134535777389095	-0.142925903649391
29713	135.01388940277778	0.14816679091161972	0.02982394451599512	0.9885125868720435	-0.12592531501859888	-0.9908402521016397	0.04876894352582967	0.9809125430477577	-0.1317046967600844	-0.14305403085168633
29714	135.0183155972222	0.1483604762834228	0.029821740518569305	0.9884836027316786	-0.12623808909027945	-0.9907970265965631	0.04883847817289505	0.9808430628493994	-0.13202998098861035	-0.14323047922965493
29715	135.02274179166668	0.14848757394799003	0.029798716649288272	0.988465212776401	-0.1265666123308235	-0.9907530383451912	0.04888056518567563	0.9807814909683703	-0.13236484992560327	-0.14334299242737092
29716	135.0271679861111	0.1485570801231505	0.029764173201733773	0.9884558098058308	-0.1269006644567055	-0.9907091407523196	0.04890418990482176	0.9807277987829908	-0.1327007627084993	-0.14339976384517544
29717	135.03160543055554	0.1486431324510194	0.029780190327018355	0.9884423905515359	-0.12719997044751435	-0.990667223681067	0.04897570256972161	0.980675984560293	-0.13300974471117882	-0.1434678400149904
29718	135.036042875	0.14872918863052295	0.029796180287797507	0.988428963603133	-0.1274992580309794	-0.9906252105866973	0.04904723592224186	0.9806240705035016	-0.1333187150790141	-0.14353589292864882
29719	135.0404690694444	0.1487739776670674	0.029803569767089408	0.9884220003613119	-0.12772040239855426	-0.990594449843276	0.049093123254165816	0.980588497984894	-0.13354543484835252	-0.14356815263453843
29720	135.0448952638889	0.14879271090777824	0.029854135009513567	0.9884176545385803	-0.12797165426172902	-0.9905575571340431	0.04918314457366035	0.980552897546191	-0.13380753576488447	-0.1435672611924403
29721	135.0493214583333	0.14881041474289394	0.02990793348817533	0.9884133629097267	-0.12832011187331066	-0.990507140464463	0.04929050190182971	0.9805046707450553	-0.13416825333654808	-0.1435599890072124
29722	135.05374765277776	0.14881807388411122	0.02990702712740801	0.9884122371833646	-0.12897379235137357	-0.9904174621151349	0.04938635058313329	0.980417738401304	-0.13482885620599128	-0.14353479634658678
29723	135.0581738472222	0.14877700875149985	0.029956317517193985	0.9884169265587095	-0.12971818820468356	-0.9903126160044043	0.04953901726323734	0.9803257587740161	-0.135585919708951	-0.14344986950439337
29724	135.06260582291665	0.14879537949128188	0.029922956918416413	0.9884151717225431	-0.13001890877395778	-0.9902725220809159	0.04955214801329538	0.9802831317549411	-0.13588579271123558	-0.14345742551699597
29725	135.0670377986111	0.14881374006755824	0.0298895907128459	0.9884134171155933	-0.13031961701214617	-0.9902323365409564	0.0495652810992287	0.980240413464428	-0.136185652826047	-0.14346497752214887
29726	135.07146977430554	0.1488320904786261	0.029856218903576898	0.9884116627380233	-0.13062031289136378	-0.9901920593882529	0.049578416519819646	0.9801976039064391	-0.13648550002557858	-0.1434725255191513
29727	135.07590174999999	0.14885043072278425	0.029822841493703733	0.9884099085899956	-0.13092099638372617	-0.9901516906265406	0.04959155427384998	0.9801547030849438	-0.13678533428202466	-0.14348006950730396
29728	135.08033372569443	0.14886876079833142	0.029789458486321745	0.9884081546716725	-0.13122166746135028	-0.9901112302595622	0.0496046943601014	0.9801117110039202	-0.13708515556758127	-0.1434876094859066
29729	135.08476570138887	0.1488870807035681	0.029756069884526684	0.9884064009832174	-0.13152232609635445	-0.9900706782910704	0.049617836777355595	0.9800686276673556	-0.13738496385444526	-0.1434951454542603
29730	135.08919767708332	0.14890539043679552	0.029722675691414527	0.9884046475247922	-0.13182297226085765	-0.9900300347248252	0.0496309815243936	0.9800254530792447	-0.13768475911481465	-0.14350267741166656
29731	135.09362965277776	0.14892368999631567	0.029689275910082046	0.9884028942965599	-0.13212360592698075	-0.9899892995645958	0.04964412859999656	0.9799821872435914	-0.137984541320889	-0.14351020535742648
29732	135.09805584722218	0.1491286736948873	0.029707060096837365	0.988371453079462	-0.13196260442935848	-0.9900096141913259	0.0496672411249367	0.9799727086578609	-0.13783488088704127	-0.1437185996892214
29733	135.10248204166666	0.1493296340305149	0.02974024256247785	0.9883401127003991	-0.13175163970665016	-0.9900361776258415	0.049697811084821186	0.9799704923286834	-0.1376367863775469	-0.14392341435895678
29734	135.10690823611108	0.14960412972620762	0.029758377301026685	0.9882980539034132	-0.13148093161115387	-0.9900713139500705	0.049714765571651054	0.9799649835537632	-0.13737988307460053	-0.14420609811960794
29735	135.11133443055556	0.14991633168280494	0.029735133169630647	0.9882514433837958	-0.13116225940914072	-0.9901149082855052	0.04968832959030933	0.9799599763263093	-0.13707038427818857	-0.14453426774425937
29736	135.11576062499998	0.15023520192260098	0.029743307728773427	0.9882027725869965	-0.130831884309631	-0.9901584146451435	0.04969237321166664	0.9799553062008834	-0.1367539745410265	-0.14486527636381902
29737	135.12019810069444	0.15063590978396457	0.029725083648394143	0.9881423187403997	-0.13043740297214546	-0.9902114972965967	0.04967166725120742	0.9799463794460592	-0.13637305461024374	-0.1452841470595882
29738	135.1246355763889	0.15103659925903473	0.029707015417334462	0.9880816964802356	-0.13004291029229764	-0.9902644294606467	0.049650792820351675	0.9799371342933052	-0.13599210631494124	-0.14570298505195606
29739	135.12906177083332	0.15150811959055394	0.029687807685023077	0.9880100828296194	-0.12953950880217702	-0.9903318481747933	0.0496220329086694	0.97993102071392	-0.1355044817176002	-0.14619757206266942
29740	135.1334879652778	0.1520057403175165	0.02961544128099506	0.9879358180308353	-0.129062888151744	-0.9903978263319895	0.04954711393008232	0.9799168463764945	-0.135037295717154	-0.14672390041483968
29741	135.13791415972221	0.15248880515047697	0.02953297246504509	0.9878638407397848	-0.12870812917216023	-0.9904474529798178	0.04947787758983058	0.9798884537480694	-0.13469092925349752	-0.14723101503435676
29742	135.14234035416666	0.15302378438227865	0.029436597618236776	0.9877839885997282	-0.12837612905311313	-0.9904941818537754	0.049404910719062944	0.9798486061135487	-0.1343680112023773	-0.1477902116611703
29743	135.1467665486111	0.1535999611698601	0.029307811234929634	0.9876983872261993	-0.12806826054465204	-0.9905388455318411	0.04930837792419002	0.9797987408492036	-0.13406657932932192	-0.1483933278057003
29744	135.15121927430556	0.15416924346540856	0.029199816564590392	0.9876128872599317	-0.12754822295568985	-0.990611375645118	0.04919911852191289	0.9797771660893868	-0.1335532596198306	-0.1489974216379899
29745	135.155672	0.15473852856634532	0.029092120013175238	0.9875270306833437	-0.1270282141655643	-0.99068362762349	0.04908953824054346	0.9797549798715137	-0.13303983806327063	-0.1496014067616641
29746	135.16009819444443	0.15537105133267107	0.02898512747716038	0.9874308577277262	-0.1264265230019863	-0.9907662067758474	0.04897609409321113	0.9797327036949459	-0.1324469172768154	-0.1502718982859393
29747	135.16452438888888	0.15603695079113522	0.028813810852995378	0.9873308636378855	-0.12614706189684366	-0.990807980080117	0.04885146245868882	0.9796628954709875	-0.1321715208117339	-0.1509678784500686
29748	135.16895058333333	0.15668019208739112	0.02867582888042998	0.9872330090943467	-0.12591113591578107	-0.9908423184917702	0.048763569785766736	0.9795905794054249	-0.1319439150695247	-0.15163475860194503
29749	135.17337677777778	0.15732879618258752	0.028524793096340983	0.9871342290036087	-0.1257125297881399	-0.990872196119944	0.048668786821795595	0.9795121284323149	-0.13175214281084885	-0.15230680588452333
29750	135.1778029722222	0.157999778855615	0.028463919036472635	0.9870288117348256	-0.12560202047092434	-0.9908856088222537	0.048681030007314496	0.9794182979377086	-0.1316644049925289	-0.1529845813236258
29751	135.18225172916667	0.15862410620305795	0.02835992648333857	0.9869316630350559	-0.12543836710356182	-0.990908588588232	0.048635225099409596	0.9793383526594235	-0.13151381536529844	-0.15362456632449495
29752	135.1866779201389	0.15918608744516383	0.028307923890260614	0.9868426678092735	-0.12528436739594112	-0.9909281044414988	0.04863454650942234	0.9792668772352611	-0.13137790252931242	-0.15419542754861115
29753	135.1911041111111	0.1597480242045599	0.028255999350258562	0.9867533467201708	-0.12513036562014018	-0.9909476006401631	0.04863377823358872	0.979195057362173	-0.13124195703441038	-0.15476623776285509
29754	135.19553030555556	0.1603091713069137	0.028208943652073826	0.9866636838826718	-0.12480534313909353	-0.9909897303473818	0.04861049958555036	0.9791448288781511	-0.13093360853523361	-0.1553441155535622
29755	135.19995649999998	0.16090598545867413	0.02814312946315814	0.9865684102522203	-0.12450042877126238	-0.9910297754449615	0.048575996307653524	0.9790857506262385	-0.13064435864410395	-0.15595879095173165
29756	135.20438269444446	0.1614251421541879	0.028091718189057285	0.9864850626591806	-0.12421852307416281	-0.9910664780861445	0.04854888813556607	0.9790360984181199	-0.13037672868695777	-0.15649353536524596
29757	135.20880888888888	0.1619148359900608	0.028003174615220658	0.9864073236233505	-0.12415973810332742	-0.9910754536000065	0.0485160252458372	0.978962688420976	-0.1303275392348487	-0.15699295269713265
29758	135.21322820833333	0.162332847714396	0.027875128002432442	0.986342244756749	-0.12419483934091635	-0.9910743378287021	0.048448929590691026	0.978889007208692	-0.13036346933189435	-0.15742197251252305
29759	135.21765440277778	0.16272833884985288	0.02769922088133385	0.9862820290858667	-0.1241818170794674	-0.9910821178340224	0.04832299676624591	0.9788249915291338	-0.13034181551672508	-0.157837407118195
29760	135.22208059722223	0.16308559035253162	0.02752306283619231	0.9862279509481982	-0.12388620678097156	-0.9911277268579851	0.04814599487751625	0.9788029924294208	-0.13003195786205196	-0.15822892259562693
29761	135.22650679166665	0.1634371906632323	0.02744046070679966	0.9861720467668452	-0.12345087043802166	-0.9911872175336909	0.04803938369623745	0.9787993498650297	-0.12959521948751873	-0.15860930549553787
29762	135.23093298611113	0.1637237952491018	0.027314607305327143	0.9861279993474407	-0.123006892258399	-0.9912501760111462	0.04787894124562647	0.9788073474009893	-0.1291394625419639	-0.1589313558999983
29763	135.23535918055555	0.16401420321746976	0.027154373049876404	0.9860841653566934	-0.12261953619541976	-0.9913071131595104	0.04769336161959864	0.9788073306254703	-0.12873557171048644	-0.15925878967961404
29764	135.23981190625	0.16430083384626593	0.02703467368508461	0.9860397367328371	-0.12219623037736949	-0.9913666565259992	0.04754191424440268	0.978812197144571	-0.12830151498404962	-0.15957883310080678
29765	135.24426463194445	0.16458750038999392	0.026915101016897813	0.9859951987979578	-0.12177294580038178	-0.9914259964862737	0.04739032772936719	0.9788167879570066	-0.12786739548629944	-0.15989879544599206
29766	135.24869082638887	0.16478720607525993	0.026764456407297965	0.9859659429144254	-0.12128928835768754	-0.9914950296460572	0.04718595889510585	0.9788432383398252	-0.12736274989331364	-0.16013945390195922
29767	135.25311702083334	0.16498977385649327	0.026624151428939966	0.985935864589311	-0.12066553418952242	-0.9915814265834065	0.04696917407804507	0.9788862055323595	-0.12671791118664077	-0.16038817787777943
29768	135.25754321527776	0.16520563138778224	0.02650480161322946	0.9859029337866929	-0.11991688599149519	-0.9916823924528555	0.04675438966646828	0.9789417959265339	-0.12595049817457882	-0.16065314250803947
29769	135.2619694097222	0.16544461774631344	0.02635043337795183	0.9858669956538613	-0.11911521569317723	-0.9917910453569754	0.04649825523700807	0.9789993073792973	-0.12512464589565175	-0.160947752827878
29770	135.26639560416666	0.16563102555377973	0.026129395425838253	0.9858415785858718	-0.11851900681172894	-0.9918763271017959	0.04620169649929773	0.9790401464691654	-0.12449339914120772	-0.1611886632859254
29771	135.2708268125	0.16596777127732654	0.025997497846838802	0.9857884301425641	-0.11750956178456406	-0.9920083238878479	0.04594549190532671	0.9791047961206384	-0.12346503733011355	-0.16158645602474525
29772	135.27525802083332	0.16630462920325784	0.02586595333435525	0.9857351179519134	-0.11650007960234299	-0.9921392332004557	0.04568887607569311	0.9791682704000448	-0.12243649130270456	-0.16198396167296342
29773	135.27968922916668	0.16664159891798	0.025734762049897622	0.9856816420793757	-0.11549056150450598	-0.9922690548788882	0.045431849325469176	0.9792305692294503	-0.12140776232182748	-0.16238117974252325
29774	135.2841204375	0.1669786800077548	0.02560392415454525	0.9856280025906105	-0.11448100873055711	-0.9923977887637485	0.04517441197023703	0.979291692532364	-0.12037885165057383	-0.16277810974571233
29775	135.28855164583334	0.16731587205871568	0.025473439808940165	0.9855741995514757	-0.11347142252002362	-0.9925254346969775	0.04491656432607766	0.9793516402337386	-0.11934976055223878	-0.16317475119518193
29776	135.29298285416667	0.16765317465685614	0.025343309173292028	0.9855202330280309	-0.11246180411247991	-0.9926519925218502	0.04465830670957771	0.9794104122599696	-0.11832049029034425	-0.16357110360393323
29777	135.29741406250002	0.16799058738803685	0.025213532407374964	0.9854661030865368	-0.11145215474753384	-0.9927774620829801	0.0443996394378256	0.9794680085388978	-0.11729104212862712	-0.16396716648532556
29778	135.30184527083335	0.16832810983797672	0.025084109670530846	0.9854118097934543	-0.11044247566485038	-0.992901843226313	0.04414056282841694	0.9795244289998046	-0.1162614173310616	-0.16436293935306623
29779	135.30627647916668	0.16866574159226588	0.024955041121664967	0.9853573532154449	-0.10943276810411168	-0.9930251357991338	0.04388107719944606	0.9795796735734172	-0.11523161716181907	-0.16475842172122568
29780	135.3107026736111	0.16913668671974613	0.024984382527459006	0.9852758810785883	-0.10832429392945325	-0.9931511482022419	0.04377949484923305	0.9796216762353476	-0.11413403284862145	-0.16527187902228835
29781	135.31512886805555	0.16963520348763497	0.0249953550538283	0.9851898953823277	-0.10723830162109105	-0.9932740240496735	0.04366531591083167	0.9796549619142101	-0.11305726590494702	-0.16581378176425976
29782	135.3195550625	0.1701327093717171	0.024958029420413724	0.9851050492050524	-0.1062313261179253	-0.9933888387859002	0.0435145990080083	0.9796783995541936	-0.11205227236897308	-0.1663566100396483
29783	135.32398125694445	0.17063576201678643	0.02503508923606662	0.985016081608769	-0.10516256767015597	-0.9935045755335492	0.043468295974448845	0.9797062167210999	-0.11100406614554525	-0.16689465604741482
29784	135.32840745138887	0.17116033821386006	0.025158778984428254	0.9849219128755995	-0.10413717850016779	-0.99361216288691	0.043477785330222396	0.9797242401188926	-0.11000866149176347	-0.16744702959518076
29785	135.33284492708333	0.17170592307855753	0.025210648504324	0.9848256186664379	-0.10331973496319408	-0.9936986352559708	0.04345175091474318	0.9797153200531654	-0.1092128449057756	-0.16801918390681225
29786	135.33728240277776	0.17225141100236463	0.025262961420761135	0.9847290156118825	-0.10250223781206119	-0.9937844533967206	0.043425239556051765	0.9797054366753376	-0.10841698652533177	-0.1685912642504111
29787	135.3417085972222	0.17276505046032725	0.025366241371831647	0.98463637508377	-0.10181698985405807	-0.9938529993116774	0.04346856722094222	0.9796864487765967	-0.10776256102120507	-0.16912034923583813
29788	135.34613479166666	0.17327655107460105	0.025428697722638255	0.984544878702755	-0.10119571460665083	-0.9939159141900137	0.04348083330709407	0.979660484143839	-0.10716593139594666	-0.16964904643144568
29789	135.3505609861111	0.173830839053602	0.025606845418215243	0.9844425472629922	-0.10067119035506356	-0.993962607821812	0.043630788264223896	0.9796163283788277	-0.10668937960167635	-0.17020348249608214
29790	135.35498718055555	0.1743570622267005	0.025775829814415327	0.9843450723445784	-0.10023159154229466	-0.9940003544206484	0.04378268457420559	0.9795678858091326	-0.10629629348666897	-0.170727429203461
29791	135.35941337499997	0.17486170796589184	0.02598083142470592	0.9842501610290608	-0.09991955468684571	-0.9940225954273556	0.04399048045936921	0.9795098088730065	-0.1060380883378455	-0.1712204956867655
29792	135.36380756944445	0.1753954996431104	0.026175606738767496	0.9841500171807146	-0.09959632852535932	-0.9940462323598231	0.04418890443888834	0.9794472880401539	-0.10576826340210899	-0.1717442412649977
29793	135.36823795138886	0.17591829896211097	0.026441404915626604	0.9840495943784365	-0.09935013322950825	-0.9940582825121351	0.04447113666529334	0.9793785290262169	-0.10558874502101123	-0.17224608502758942
29794	135.37266833333334	0.17641785142029054	0.02665110114797531	0.9839545012386743	-0.09921036359370222	-0.994061403472152	0.044712748546479386	0.9793028364381743	-0.10550661085721452	-0.17272611154533252
29795	135.37709871527775	0.17694536764221763	0.026865985580720522	0.9838539300570676	-0.09922741589458989	-0.9940471781353047	0.04499030535704318	0.9792059317655519	-0.10558610921903688	-0.17322620106422426
29796	135.38152909722223	0.17743097093152	0.027024785082584837	0.9837621214224193	-0.09933750606815511	-0.9940256140432732	0.045223207693101675	0.9791068942880842	-0.10574847335604565	-0.17368635507836638
29797	135.38595947916664	0.1778692322632535	0.027198286239701608	0.9836781940450363	-0.09947293460172407	-0.9940007913654495	0.045470452456305044	0.9790136217110577	-0.10593715113444963	-0.17409666428083814
29798	135.3904017361111	0.1782476761613541	0.027339854781158593	0.9836057636490456	-0.0997115465663298	-0.9939664747046579	0.04569742492247758	0.9789205143546781	-0.10622231170399166	-0.1744461150952703
29799	135.39484399305556	0.17862612909910333	0.02748131210513531	0.9835331633900561	-0.09995006396416584	-0.9939320533947296	0.04592448092352952	0.9788272016636184	-0.10650751484997018	-0.17479547638269638
29800	135.39927437499998	0.17895641634241718	0.027605137396221918	0.9834696525257988	-0.10029416879108033	-0.9938870595760096	0.04614750820857222	0.9787316694356968	-0.10689466402346592	-0.1750938321213074
29801	135.40370475694445	0.17924842783503708	0.02773650101281548	0.983412775811985	-0.10065213907443177	-0.9938402052021931	0.046376647392887105	0.9786414808388253	-0.10729554061203572	-0.17535255614436374
29802	135.40813513888887	0.1794670923242801	0.027798107880711256	0.9833711547380882	-0.10117491204568213	-0.9937786927402261	0.04655692245065107	0.9785474949869408	-0.10784792558867223	-0.17553810128004532
29803	135.41256552083334	0.1796446085054756	0.027805407131424514	0.983338534772827	-0.10168855708137509	-0.9937206649629966	0.04667630431180031	0.9784616763029721	-0.1083794231381382	-0.17568906809082369
29804	135.41699590277776	0.17973432650842613	0.027849580275501606	0.983320890021686	-0.1021647126650761	-0.9936652276462175	0.046816523288828904	0.9783955965562319	-0.10887523246941605	-0.1757505060991451
29805	135.4214229097222	0.17975834372355187	0.027920074607505938	0.9833145007044679	-0.1023895150300746	-0.9936366956839003	0.04693084489209998	0.9783676839888323	-0.10911730579652112	-0.1757557637804148
29806	135.42584991666666	0.1797823768313465	0.027990562759952625	0.9833081029754882	-0.10261430885248957	-0.993608099731469	0.047045167304891555	0.9783397163560303	-0.10935937337238422	-0.17576099355659636
29807	135.4302802986111	0.1797352323781456	0.027968579572259747	0.9833173469428294	-0.10263944268178138	-0.993606593601907	0.04702214326026577	0.9783457420809618	-0.10937868031534204	-0.17571543257359856
29808	135.43471068055555	0.17966087124478103	0.027959464848393678	0.9833311953095749	-0.10262047467952207	-0.9936095471412638	0.04700112771287612	0.9783613900395476	-0.10935417758423305	-0.17564354336200433
29809	135.4391410625	0.1795430510295291	0.027996129094340266	0.9833516713682552	-0.10255582955950826	-0.9936156471127848	0.047013270849866284	0.9783897968858675	-0.10928935249316302	-0.1755256185895842
29810	135.44357144444444	0.1793955766731962	0.02806500833843699	0.9833766228546695	-0.10243628101737318	-0.9936264869767466	0.047044794712900684	0.9784293716980399	-0.10917307216164929	-0.17537732154804453
29811	135.4480018263889	0.17919901463825913	0.028123966877296527	0.9834107766542736	-0.10230909271962635	-0.9936388977257854	0.04705943553819164	0.9784786981327511	-0.1090448688080784	-0.17518177384381367
29812	135.45242883333333	0.17902252927916684	0.02814014294655212	0.9834424570687588	-0.10215229393114172	-0.9936565245595046	0.047027864558492394	0.9785273848263498	-0.1088799501987115	-0.1750123241078485
29813	135.45685584027777	0.1788460357039649	0.028156289268814333	0.9834741068719537	-0.10199548670416048	-0.9936741249170997	0.04699632073064336	0.9785760145256768	-0.10871502584669213	-0.17484286359527385
29814	135.4612862222222	0.17861191900706097	0.028116355087190043	0.9835177949408063	-0.10179407141826624	-0.9936996238511429	0.04689375845664295	0.9786397444477246	-0.10849206484673474	-0.17462451847488053
29815	135.46571660416666	0.1783801116511473	0.02810252731620419	0.9835602593261719	-0.10163648154378385	-0.993718961925864	0.046825744290760696	0.9786984016471696	-0.10831838563893759	-0.1744034573792907
29816	135.4701469861111	0.17816063145541589	0.028148700691883036	0.9835987190154156	-0.10145544708467769	-0.9937379375909676	0.04681563466726446	0.9787571617394459	-0.10813215082393113	-0.17418913944886177
29817	135.47457736805555	0.17791917926976938	0.028156521465058038	0.9836421991491417	-0.10135116639468866	-0.9937503482248213	0.04677805546923397	0.9788118852560017	-0.10801599743572393	-0.17395355006310698
29818	135.47900775	0.17767688489773692	0.028203994372674943	0.9836846340542597	-0.10141142618648524	-0.9937427105959555	0.04680969745924346	0.9788496550603978	-0.1080738628847373	-0.17370490191503418
29819	135.48343669444444	0.17743615777427169	0.02819492923230839	0.9837283445544758	-0.10156442626129297	-0.9937275038913287	0.0468008047807319	0.9788774577200756	-0.10821595989268373	-0.17345958835413772
29820	135.48786707638888	0.17717573221344585	0.02814458626802735	0.9837767237429594	-0.10179689043822848	-0.9937055440027922	0.046762002900028354	0.9789004816689677	-0.10843050346612126	-0.1731954759984995
29821	135.49229745833333	0.17689308767874007	0.028087266654547235	0.9838292234851322	-0.10192956107310691	-0.9936950515369873	0.04669592198841438	0.9789377917472212	-0.1085414667432712	-0.17291486311562104
29822	135.49672784027777	0.17661622202701927	0.028052493720526595	0.9838799559463354	-0.10204628960223927	-0.993685209915016	0.04665038450610254	0.9789756201741282	-0.10864051358591376	-0.1726382747610457
29823	135.50115822222222	0.17625314049777424	0.02792765529604964	0.983948614783484	-0.10216056991043604	-0.9936803413596245	0.04650373265658597	0.9790291356339947	-0.10871718017445692	-0.17228617563422755
29824	135.50558860416666	0.17590356726565126	0.027800919785081715	0.9840147579596163	-0.10223508922274871	-0.9936798766443844	0.04634964167734151	0.9790842259759043	-0.10875390388903172	-0.17194960550713723
29825	135.5100434236111	0.17555728217424826	0.027677831071397443	0.98408006703864	-0.10227020421998911	-0.9936835726859516	0.046192669363057215	0.9791427097233544	-0.10875152891461426	-0.17161776992590466
29826	135.51449824305556	0.1752109717602317	0.027554740972090305	0.984145239090652	-0.1023052639626218	-0.9936872489584563	0.04603568423422927	0.9792010765620991	-0.10874919543305317	-0.17128591346719096
29827	135.51892443749998	0.17477968614549727	0.027431226412155063	0.9842253751699388	-0.10255061587390235	-0.993667983806886	0.04590543694423982	0.9792524865910552	-0.108956256243886	-0.17085988917985367
29828	135.52335063194445	0.17430050729072993	0.027264960744307343	0.9843149674132797	-0.10282290291386731	-0.9936478816110477	0.04573114919005611	0.9793093401957116	-0.10918108483381694	-0.1703898674216025
29829	135.52777682638887	0.17382948050080915	0.027055065496851716	0.9844040507534393	-0.1031425935959508	-0.9936243634332025	0.04552175060631375	0.9793594422351373	-0.1094470092004527	-0.16993067728328715
29830	135.53220302083332	0.17329605463732817	0.026919609792563665	0.984501809066775	-0.10350618181647786	-0.9935926835426172	0.04538776857651483	0.9794156154426532	-0.10976754447101916	-0.1693993459488332
29831	135.53662921527777	0.17270334365119502	0.026777456774979683	0.9846098328273801	-0.10378735965240121	-0.993570739906231	0.04522575348811225	0.9794905507803944	-0.1100006936834877	-0.16881382739891654
