sep=,
DeviceTag:,Xsens_DOT_02
FirmwareVersion:,1.4.0
AppVersion:,2020.2.2
Measurement Mode:,Sensor fusion Mode - Orientation(Quaternion)
StartTime: ,2020-11-04_15:24:03_812 CET
© Xsens Technologies B. V. 2005-2020

PacketCounter,SampleTimeFine,Quat_W,Quat_X,Quat_Y,Quat_Z
1,2476560008,0.491395,0.009008,0.005148,-0.870875
2,2476576675,0.491511,0.009014,0.005143,-0.870810
3,2476593342,0.491462,0.009017,0.005137,-0.870838
4,2476610009,0.491539,0.009011,0.005136,-0.870794
5,2476626676,0.491420,0.009024,0.005122,-0.870861
6,2476643343,0.491642,0.009028,0.005112,-0.870736
7,2476660010,0.491474,0.009023,0.005106,-0.870831
8,2476676677,0.491759,0.009018,0.005110,-0.870670
9,2476693344,0.491851,0.009015,0.005103,-0.870618
10,2476710011,0.491811,0.009005,0.005099,-0.870641
11,2476726678,0.491791,0.009002,0.005097,-0.870652
12,2476743345,0.491814,0.008986,0.005103,-0.870639
13,2476760012,0.491728,0.008988,0.005098,-0.870688
14,2476776679,0.491530,0.008996,0.005100,-0.870800
15,2476793346,0.491616,0.008998,0.005113,-0.870751
16,2476810013,0.491864,0.008991,0.005118,-0.870611
17,2476826680,0.492316,0.008986,0.005118,-0.870356
18,2476843347,0.492318,0.008986,0.005118,-0.870354
19,2476860014,0.492238,0.008986,0.005108,-0.870400
20,2476876681,0.492173,0.008984,0.005103,-0.870436
21,2476893348,0.492146,0.008986,0.005101,-0.870452
22,2476910015,0.492159,0.008990,0.005100,-0.870444
23,2476926682,0.492048,0.008995,0.005093,-0.870507
24,2476943349,0.491961,0.008990,0.005096,-0.870556
25,2476960016,0.492014,0.008976,0.005095,-0.870526
26,2476976683,0.492062,0.008975,0.005088,-0.870499
27,2476993350,0.492069,0.008976,0.005093,-0.870495
28,2477010017,0.492027,0.008974,0.005084,-0.870519
29,2477026684,0.492232,0.008983,0.005079,-0.870403
30,2477043351,0.492245,0.008992,0.005064,-0.870396
31,2477060018,0.492259,0.009010,0.005051,-0.870388
32,2477076685,0.492145,0.009020,0.005052,-0.870452
33,2477093352,0.492070,0.009019,0.005040,-0.870495
34,2477110019,0.492065,0.009017,0.005044,-0.870497
35,2477126686,0.492006,0.009020,0.005040,-0.870530
36,2477143353,0.491820,0.009016,0.005022,-0.870636
37,2477160020,0.491830,0.009016,0.005012,-0.870630
38,2477176687,0.491880,0.009019,0.005013,-0.870602
39,2477193354,0.491884,0.009019,0.005000,-0.870600
40,2477210021,0.491679,0.009026,0.004999,-0.870716
41,2477226688,0.491662,0.009032,0.005000,-0.870725
42,2477243355,0.491662,0.009040,0.004995,-0.870725
43,2477260022,0.491629,0.009049,0.005003,-0.870744
44,2477276689,0.491617,0.009049,0.005003,-0.870750
45,2477293356,0.491445,0.009056,0.004986,-0.870847
46,2477310023,0.490777,0.009043,0.004978,-0.871224
47,2477326690,0.490511,0.009047,0.004970,-0.871374
48,2477343357,0.490381,0.009052,0.004966,-0.871447
49,2477360024,0.490329,0.009057,0.004966,-0.871477
50,2477376691,0.490320,0.009067,0.004965,-0.871482
51,2477393358,0.490372,0.009070,0.004954,-0.871452
52,2477410025,0.490306,0.009078,0.004952,-0.871489
53,2477426692,0.490365,0.009071,0.004956,-0.871456
54,2477443359,0.490610,0.009062,0.004960,-0.871318
55,2477460026,0.490611,0.009064,0.004968,-0.871318
56,2477476693,0.490660,0.009059,0.004960,-0.871290
57,2477493360,0.490959,0.009065,0.004956,-0.871122
58,2477510027,0.490983,0.009064,0.004952,-0.871108
59,2477526694,0.491248,0.009066,0.004951,-0.870958
60,2477543361,0.491207,0.009075,0.004948,-0.870982
61,2477560028,0.491058,0.009077,0.004935,-0.871066
62,2477576695,0.491046,0.009075,0.004930,-0.871073
63,2477593362,0.490908,0.009078,0.004925,-0.871150
64,2477610029,0.491049,0.009079,0.004929,-0.871071
65,2477626696,0.491059,0.009081,0.004931,-0.871065
66,2477643363,0.491081,0.009069,0.004929,-0.871053
67,2477660030,0.491094,0.009071,0.004934,-0.871046
68,2477676697,0.491031,0.009062,0.004933,-0.871081
69,2477693364,0.490761,0.009055,0.004928,-0.871233
70,2477710031,0.490680,0.009047,0.004929,-0.871279
71,2477726698,0.490730,0.009032,0.004933,-0.871251
72,2477743365,0.490560,0.009032,0.004928,-0.871347
73,2477760032,0.490469,0.009033,0.004924,-0.871398
74,2477776699,0.490474,0.009038,0.004924,-0.871395
75,2477793366,0.490421,0.009045,0.004920,-0.871425
76,2477810033,0.490545,0.009050,0.004914,-0.871355
77,2477826700,0.490543,0.009055,0.004921,-0.871356
78,2477843367,0.490449,0.009055,0.004912,-0.871409
79,2477860034,0.490984,0.009055,0.004917,-0.871108
80,2477876701,0.490908,0.009051,0.004918,-0.871151
81,2477893368,0.491053,0.009036,0.004920,-0.871069
82,2477910035,0.491080,0.009042,0.004913,-0.871054
83,2477926702,0.490932,0.009046,0.004914,-0.871137
84,2477943369,0.490911,0.009055,0.004906,-0.871149
85,2477960036,0.490739,0.009048,0.004887,-0.871246
86,2477976703,0.490516,0.009046,0.004892,-0.871372
87,2477993370,0.490536,0.009047,0.004901,-0.871360
88,2478010037,0.490592,0.009047,0.004897,-0.871329
89,2478026704,0.490797,0.009048,0.004905,-0.871214
90,2478043371,0.490988,0.009042,0.004898,-0.871106
91,2478060038,0.491023,0.009037,0.004896,-0.871086
92,2478076705,0.491039,0.009035,0.004888,-0.871077
93,2478093372,0.491089,0.009036,0.004871,-0.871049
94,2478110039,0.491152,0.009034,0.004868,-0.871014
95,2478126706,0.491131,0.009038,0.004878,-0.871025
96,2478143373,0.491067,0.009046,0.004874,-0.871061
97,2478160040,0.490958,0.009044,0.004871,-0.871123
98,2478176707,0.490852,0.009058,0.004875,-0.871183
99,2478193374,0.490960,0.009053,0.004875,-0.871122
100,2478210041,0.490935,0.009055,0.004862,-0.871136
101,2478226708,0.490903,0.009063,0.004865,-0.871154
102,2478243375,0.490851,0.009060,0.004864,-0.871183
103,2478260042,0.491041,0.009057,0.004857,-0.871076
104,2478276709,0.491125,0.009060,0.004851,-0.871029
105,2478293376,0.491349,0.009063,0.004854,-0.870902
106,2478310043,0.491198,0.009074,0.004849,-0.870987
107,2478326710,0.491366,0.009074,0.004856,-0.870892
108,2478343377,0.491347,0.009075,0.004853,-0.870903
109,2478360044,0.491356,0.009083,0.004857,-0.870898
110,2478376711,0.491326,0.009077,0.004845,-0.870915
111,2478393378,0.491114,0.009078,0.004832,-0.871035
112,2478410045,0.490883,0.009084,0.004845,-0.871165
113,2478426712,0.490903,0.009092,0.004845,-0.871154
114,2478443379,0.490886,0.009102,0.004840,-0.871163
115,2478460046,0.490852,0.009095,0.004843,-0.871182
116,2478476713,0.490493,0.009098,0.004847,-0.871384
117,2478493380,0.490598,0.009043,0.005019,-0.871325
118,2478510047,0.490678,0.009036,0.005018,-0.871280
119,2478526714,0.490617,0.009031,0.005014,-0.871314
120,2478543381,0.490876,0.009023,0.005031,-0.871169
121,2478560048,0.490842,0.009033,0.005022,-0.871188
122,2478576715,0.490800,0.009032,0.005023,-0.871211
123,2478593382,0.490725,0.009033,0.005022,-0.871253
124,2478610049,0.490619,0.009030,0.005021,-0.871313
125,2478626716,0.490739,0.009028,0.005037,-0.871246
126,2478643383,0.490847,0.009034,0.005041,-0.871185
127,2478660050,0.490915,0.009032,0.005038,-0.871146
128,2478676717,0.490897,0.009034,0.005044,-0.871156
129,2478693384,0.490983,0.009027,0.005045,-0.871108
130,2478710051,0.490915,0.009023,0.005048,-0.871146
131,2478726718,0.490917,0.009028,0.005048,-0.871145
132,2478743385,0.490765,0.009033,0.005039,-0.871231
133,2478760052,0.490816,0.009031,0.005045,-0.871202
134,2478776719,0.490996,0.009031,0.005045,-0.871101
135,2478793386,0.490870,0.009038,0.005052,-0.871172
136,2478810053,0.490813,0.009036,0.005053,-0.871204
137,2478826720,0.490757,0.009037,0.005056,-0.871235
138,2478843387,0.490755,0.009034,0.005055,-0.871237
139,2478860054,0.490807,0.009035,0.005063,-0.871207
140,2478876721,0.490966,0.009034,0.005066,-0.871118
141,2478893388,0.491061,0.009039,0.005065,-0.871064
142,2478910055,0.491007,0.009035,0.005058,-0.871094
143,2478926722,0.491004,0.009041,0.005049,-0.871096
144,2478943389,0.490808,0.009041,0.005054,-0.871206
145,2478960056,0.490711,0.009039,0.005051,-0.871261
146,2478976723,0.490785,0.009048,0.005052,-0.871219
147,2478993390,0.490565,0.009044,0.005051,-0.871343
148,2479010057,0.490293,0.009040,0.005052,-0.871497
149,2479026724,0.490304,0.009050,0.005052,-0.871490
150,2479043391,0.490342,0.009056,0.005052,-0.871468
151,2479060058,0.490295,0.009060,0.005050,-0.871495
152,2479076725,0.490337,0.009051,0.005058,-0.871472
153,2479093392,0.490384,0.009053,0.005050,-0.871445
154,2479110059,0.490288,0.009058,0.005061,-0.871499
155,2479126726,0.490346,0.009053,0.005066,-0.871466
156,2479143393,0.490531,0.009052,0.005076,-0.871362
157,2479160060,0.490507,0.009055,0.005080,-0.871375
158,2479176727,0.490515,0.009058,0.005073,-0.871371
159,2479193394,0.490526,0.009062,0.005078,-0.871365
160,2479210061,0.490427,0.009056,0.005081,-0.871421
161,2479226728,0.490522,0.009064,0.005082,-0.871367
162,2479243395,0.490549,0.009072,0.005086,-0.871352
163,2479260062,0.490551,0.009072,0.005083,-0.871351
164,2479276729,0.490818,0.009067,0.005089,-0.871200
165,2479293396,0.490818,0.009052,0.005083,-0.871201
166,2479310063,0.490802,0.009056,0.005085,-0.871210
167,2479326730,0.490866,0.009057,0.005091,-0.871173
168,2479343397,0.490868,0.009052,0.005088,-0.871173
169,2479360064,0.490924,0.009060,0.005087,-0.871141
170,2479376731,0.490930,0.009063,0.005089,-0.871137
171,2479393398,0.490908,0.009064,0.005101,-0.871149
172,2479410065,0.490855,0.009063,0.005107,-0.871180
173,2479426732,0.490878,0.009067,0.005111,-0.871167
174,2479443399,0.490917,0.009066,0.005123,-0.871144
175,2479460066,0.490866,0.009072,0.005132,-0.871173
176,2479476733,0.490853,0.009067,0.005134,-0.871181
177,2479493400,0.490824,0.009074,0.005141,-0.871197
178,2479510067,0.490866,0.009075,0.005158,-0.871173
179,2479526734,0.490926,0.009070,0.005150,-0.871139
180,2479543401,0.490801,0.009059,0.005143,-0.871210
181,2479560068,0.490765,0.009045,0.005144,-0.871230
182,2479576735,0.490771,0.009039,0.005144,-0.871227
183,2479593402,0.490771,0.009032,0.005162,-0.871227
184,2479610069,0.490853,0.009034,0.005156,-0.871180
185,2479626736,0.490876,0.009026,0.005149,-0.871168
186,2479643403,0.490885,0.009024,0.005160,-0.871162
187,2479660070,0.491070,0.009026,0.005161,-0.871059
188,2479676737,0.491232,0.009031,0.005171,-0.870967
189,2479693404,0.491240,0.009046,0.005185,-0.870962
190,2479710071,0.491223,0.009037,0.005184,-0.870972
191,2479726738,0.491102,0.009040,0.005183,-0.871040
192,2479743405,0.491089,0.009042,0.005191,-0.871047
193,2479760072,0.491133,0.009038,0.005198,-0.871023
194,2479776739,0.491085,0.009034,0.005201,-0.871049
195,2479793406,0.491076,0.009023,0.005205,-0.871055
196,2479810073,0.490992,0.009025,0.005205,-0.871102
197,2479826740,0.490965,0.009025,0.005204,-0.871117
198,2479843407,0.491018,0.009014,0.005197,-0.871087
199,2479860074,0.490598,0.009005,0.005194,-0.871324
200,2479876741,0.490505,0.009001,0.005194,-0.871377
201,2479893408,0.490432,0.008990,0.005197,-0.871418
202,2479910075,0.490514,0.008986,0.005194,-0.871372
203,2479926742,0.490566,0.008989,0.005196,-0.871342
204,2479943409,0.490613,0.008993,0.005194,-0.871316
205,2479960076,0.490429,0.008997,0.005188,-0.871419
206,2479976743,0.490483,0.008995,0.005190,-0.871389
207,2479993410,0.490447,0.008998,0.005189,-0.871409
208,2480010077,0.490411,0.008997,0.005189,-0.871430
209,2480026744,0.490375,0.008991,0.005183,-0.871450
210,2480043411,0.490511,0.008989,0.005186,-0.871373
211,2480060078,0.490564,0.008992,0.005181,-0.871344
212,2480076745,0.490510,0.008986,0.005192,-0.871374
213,2480093412,0.490521,0.008990,0.005175,-0.871368
214,2480110079,0.490548,0.008992,0.005177,-0.871353
215,2480126746,0.490553,0.008993,0.005186,-0.871349
216,2480143413,0.490592,0.008985,0.005197,-0.871328
217,2480160080,0.490580,0.008990,0.005188,-0.871335
218,2480176747,0.490501,0.008985,0.005185,-0.871379
219,2480193414,0.490587,0.008985,0.005189,-0.871331
220,2480210081,0.490565,0.008981,0.005198,-0.871343
221,2480226748,0.490601,0.008971,0.005202,-0.871323
222,2480243415,0.490431,0.008976,0.005208,-0.871419
223,2480260082,0.490573,0.008971,0.005206,-0.871339
224,2480276749,0.490488,0.008973,0.005203,-0.871387
225,2480293416,0.490433,0.008985,0.005207,-0.871417
226,2480310083,0.490481,0.008977,0.005211,-0.871390
227,2480326750,0.490482,0.008972,0.005196,-0.871390
228,2480343417,0.490497,0.008968,0.005194,-0.871382
229,2480360084,0.490558,0.008963,0.005209,-0.871347
230,2480376751,0.490282,0.008962,0.005201,-0.871503
231,2480393418,0.490211,0.008964,0.005202,-0.871543
232,2480410085,0.490171,0.008972,0.005195,-0.871565
233,2480426752,0.490236,0.008978,0.005189,-0.871528
234,2480443419,0.490245,0.008982,0.005183,-0.871523
235,2480460086,0.490270,0.008986,0.005189,-0.871509
236,2480476753,0.490321,0.008985,0.005174,-0.871480
237,2480493420,0.490401,0.009030,0.005078,-0.871436
238,2480510087,0.490437,0.009032,0.005084,-0.871415
239,2480526754,0.490291,0.009049,0.005083,-0.871497
240,2480543421,0.490279,0.009050,0.005081,-0.871504
241,2480560088,0.490199,0.009051,0.005078,-0.871549
242,2480576755,0.490237,0.009053,0.005082,-0.871527
243,2480593422,0.490186,0.009056,0.005084,-0.871556
244,2480610089,0.490176,0.009060,0.005078,-0.871562
245,2480626756,0.490119,0.009063,0.005076,-0.871594
246,2480643423,0.490201,0.009068,0.005079,-0.871548
247,2480660090,0.490230,0.009066,0.005080,-0.871531
248,2480676757,0.490103,0.009066,0.005081,-0.871603
249,2480693424,0.490112,0.009072,0.005089,-0.871598
250,2480710091,0.490106,0.009069,0.005084,-0.871601
251,2480726758,0.490141,0.009067,0.005090,-0.871581
252,2480743425,0.490597,0.009063,0.005101,-0.871325
253,2480760092,0.490703,0.009056,0.005100,-0.871265
254,2480776759,0.490698,0.009055,0.005093,-0.871268
255,2480793426,0.490666,0.009050,0.005090,-0.871286
256,2480810093,0.490661,0.009054,0.005080,-0.871289
257,2480826760,0.490685,0.009056,0.005071,-0.871275
258,2480843427,0.490624,0.009053,0.005060,-0.871310
259,2480860094,0.490673,0.009049,0.005049,-0.871282
260,2480876761,0.490684,0.009047,0.005050,-0.871276
261,2480893428,0.490677,0.009052,0.005044,-0.871280
262,2480910095,0.490722,0.009051,0.005055,-0.871255
263,2480926762,0.490652,0.009056,0.005054,-0.871294
264,2480943429,0.490542,0.009047,0.005053,-0.871356
265,2480960096,0.490500,0.009049,0.005051,-0.871380
266,2480976763,0.490490,0.009050,0.005046,-0.871385
267,2480993430,0.490462,0.009047,0.005054,-0.871401
268,2481010097,0.490630,0.009053,0.005055,-0.871307
269,2481026764,0.490551,0.009057,0.005058,-0.871351
270,2481043431,0.490571,0.009063,0.005052,-0.871340
271,2481060098,0.490549,0.009066,0.005040,-0.871352
272,2481076765,0.490554,0.009063,0.005047,-0.871349
273,2481093432,0.490629,0.009061,0.005048,-0.871307
274,2481110099,0.490678,0.009057,0.005044,-0.871279
275,2481126766,0.490642,0.009052,0.005038,-0.871300
276,2481143433,0.490608,0.009040,0.005031,-0.871319
277,2481160100,0.490693,0.009035,0.005030,-0.871271
278,2481176767,0.490767,0.009024,0.005022,-0.871230
279,2481193434,0.490778,0.009020,0.005023,-0.871224
280,2481210101,0.490806,0.009024,0.005016,-0.871208
281,2481226768,0.490731,0.009030,0.005023,-0.871250
282,2481243435,0.490754,0.009030,0.005025,-0.871237
283,2481260102,0.490634,0.009031,0.005023,-0.871305
284,2481276769,0.490480,0.009023,0.005014,-0.871392
285,2481293436,0.490604,0.009018,0.005011,-0.871322
286,2481310103,0.490612,0.009014,0.005017,-0.871317
287,2481326770,0.490460,0.009011,0.005020,-0.871403
288,2481343437,0.490589,0.009008,0.005021,-0.871331
289,2481360104,0.490490,0.008997,0.005022,-0.871386
290,2481376771,0.490432,0.009006,0.005011,-0.871419
291,2481393438,0.490447,0.009003,0.005006,-0.871410
292,2481410105,0.490481,0.009001,0.005016,-0.871391
293,2481426772,0.490481,0.008997,0.005015,-0.871391
294,2481443439,0.490468,0.009004,0.005018,-0.871398
295,2481460106,0.490359,0.009012,0.005015,-0.871460
296,2481476773,0.490418,0.009015,0.005013,-0.871427
297,2481493440,0.490245,0.009017,0.005022,-0.871524
298,2481510107,0.490050,0.009013,0.005021,-0.871634
299,2481526774,0.489930,0.009005,0.005015,-0.871701
300,2481543441,0.489942,0.009009,0.005028,-0.871694
301,2481560108,0.489876,0.009008,0.005038,-0.871731
302,2481576775,0.489794,0.009021,0.005043,-0.871777
303,2481593442,0.489935,0.009008,0.005047,-0.871698
304,2481610109,0.489849,0.009013,0.005047,-0.871746
305,2481626776,0.489799,0.009007,0.005042,-0.871774
306,2481643443,0.489865,0.009006,0.005048,-0.871738
307,2481660110,0.489954,0.009022,0.005041,-0.871687
308,2481676777,0.489833,0.009020,0.005051,-0.871755
309,2481693444,0.489897,0.009018,0.005051,-0.871719
310,2481710111,0.489895,0.009014,0.005045,-0.871720
311,2481726778,0.489909,0.009012,0.005031,-0.871713
312,2481743445,0.489879,0.009009,0.005024,-0.871730
313,2481760112,0.489864,0.009006,0.005022,-0.871738
314,2481776779,0.489878,0.009009,0.005021,-0.871731
315,2481793446,0.489868,0.009007,0.005027,-0.871736
316,2481810113,0.489742,0.009013,0.005024,-0.871807
317,2481826780,0.489810,0.009015,0.005026,-0.871769
318,2481843447,0.489897,0.009025,0.005036,-0.871719
319,2481860114,0.489767,0.009028,0.005030,-0.871792
320,2481876781,0.489677,0.009032,0.005012,-0.871843
321,2481893448,0.489665,0.009040,0.005025,-0.871850
322,2481910115,0.489831,0.009036,0.005018,-0.871756
323,2481926782,0.489778,0.009037,0.005023,-0.871786
324,2481943449,0.489662,0.009041,0.005022,-0.871851
325,2481960116,0.489654,0.009034,0.005030,-0.871856
326,2481976783,0.489815,0.009038,0.005043,-0.871765
327,2481993450,0.489872,0.009028,0.005029,-0.871734
328,2482010117,0.489871,0.009025,0.005028,-0.871734
329,2482026784,0.490011,0.009023,0.005032,-0.871655
330,2482043451,0.490159,0.009018,0.005035,-0.871572
331,2482060118,0.490254,0.009019,0.005026,-0.871519
332,2482076785,0.490263,0.009025,0.005019,-0.871514
333,2482093452,0.490229,0.009020,0.005004,-0.871533
334,2482110119,0.490308,0.009016,0.005003,-0.871489
335,2482126786,0.490439,0.009024,0.005007,-0.871415
336,2482143453,0.490447,0.009025,0.005009,-0.871410
337,2482160120,0.490519,0.009021,0.005009,-0.871370
338,2482176787,0.490620,0.009023,0.005010,-0.871313
339,2482193454,0.490771,0.009021,0.005006,-0.871228
340,2482210121,0.490989,0.009024,0.005015,-0.871105
341,2482226788,0.490999,0.009018,0.005016,-0.871100
342,2482243455,0.491028,0.009014,0.005006,-0.871083
343,2482260122,0.491153,0.009016,0.004991,-0.871013
344,2482276789,0.491165,0.009008,0.005007,-0.871006
345,2482293456,0.490896,0.009014,0.005010,-0.871157
346,2482310123,0.490837,0.009015,0.005007,-0.871191
347,2482326790,0.490814,0.009019,0.005013,-0.871203
348,2482343457,0.490869,0.009013,0.005014,-0.871173
349,2482360124,0.490817,0.009012,0.005008,-0.871202
350,2482376791,0.490814,0.009009,0.005003,-0.871204
351,2482393458,0.490804,0.009016,0.005004,-0.871209
352,2482410125,0.490820,0.009038,0.004999,-0.871200
353,2482426792,0.490891,0.009034,0.004992,-0.871160
354,2482443459,0.490891,0.009040,0.004989,-0.871160
355,2482460126,0.490841,0.009034,0.005000,-0.871188
356,2482476793,0.490866,0.009028,0.005002,-0.871174
357,2482493460,0.490903,0.009016,0.005066,-0.871153
358,2482510127,0.490891,0.009012,0.005058,-0.871160
359,2482526794,0.490920,0.009012,0.005055,-0.871143
360,2482543461,0.490898,0.009015,0.005049,-0.871156
361,2482560128,0.490881,0.009013,0.005059,-0.871166
362,2482576795,0.490886,0.009009,0.005063,-0.871162
363,2482593462,0.490858,0.009018,0.005057,-0.871179
364,2482610129,0.490851,0.009017,0.005067,-0.871183
365,2482626796,0.490839,0.009028,0.005064,-0.871189
366,2482643463,0.490845,0.009021,0.005065,-0.871186
367,2482660130,0.490958,0.009017,0.005061,-0.871122
368,2482676797,0.490802,0.009019,0.005062,-0.871210
369,2482693464,0.490851,0.009017,0.005061,-0.871183
370,2482710131,0.490843,0.009020,0.005064,-0.871187
371,2482726798,0.490782,0.009011,0.005055,-0.871221
372,2482743465,0.490825,0.009001,0.005063,-0.871197
373,2482760132,0.490904,0.009005,0.005058,-0.871153
374,2482776799,0.490834,0.008995,0.005056,-0.871192
375,2482793466,0.490839,0.008993,0.005055,-0.871189
376,2482810133,0.490797,0.008982,0.005059,-0.871213
377,2482826800,0.490769,0.008978,0.005052,-0.871229
378,2482843467,0.490703,0.008978,0.005059,-0.871266
379,2482860134,0.490679,0.008976,0.005059,-0.871279
380,2482876801,0.490746,0.008968,0.005063,-0.871242
381,2482893468,0.490699,0.008975,0.005061,-0.871269
382,2482910135,0.490647,0.008981,0.005061,-0.871298
383,2482926802,0.490659,0.008982,0.005065,-0.871291
384,2482943469,0.490719,0.008977,0.005067,-0.871257
385,2482960136,0.490748,0.008970,0.005070,-0.871241
386,2482976803,0.490855,0.008959,0.005062,-0.871181
387,2482993470,0.490852,0.008965,0.005050,-0.871182
388,2483010137,0.490920,0.008964,0.005046,-0.871144
389,2483026804,0.490892,0.008960,0.005047,-0.871160
390,2483043471,0.490893,0.008952,0.005063,-0.871159
391,2483060138,0.490857,0.008950,0.005062,-0.871179
392,2483076805,0.490823,0.008945,0.005068,-0.871199
393,2483093472,0.490827,0.008947,0.005063,-0.871197
394,2483110139,0.490795,0.008944,0.005059,-0.871215
395,2483126806,0.490697,0.008944,0.005047,-0.871270
396,2483143473,0.490706,0.008949,0.005048,-0.871265
397,2483160140,0.490668,0.008958,0.005041,-0.871286
398,2483176807,0.490667,0.008958,0.005046,-0.871287
399,2483193474,0.490670,0.008957,0.005054,-0.871285
400,2483210141,0.490679,0.008953,0.005044,-0.871280
401,2483226808,0.490705,0.008954,0.005045,-0.871266
402,2483243475,0.490805,0.008947,0.005056,-0.871209
403,2483260142,0.490736,0.008946,0.005066,-0.871248
404,2483276809,0.490792,0.008947,0.005077,-0.871216
405,2483293476,0.490818,0.008954,0.005077,-0.871202
406,2483310143,0.490788,0.008953,0.005079,-0.871219
407,2483326810,0.490780,0.008954,0.005069,-0.871223
408,2483343477,0.490781,0.008957,0.005072,-0.871222
409,2483360144,0.490812,0.008957,0.005060,-0.871205
410,2483376811,0.490749,0.008962,0.005067,-0.871240
411,2483393478,0.490962,0.008953,0.005074,-0.871120
412,2483410145,0.490992,0.008946,0.005065,-0.871104
413,2483426812,0.490966,0.008945,0.005068,-0.871118
414,2483443479,0.490898,0.008947,0.005071,-0.871157
415,2483460146,0.490936,0.008944,0.005056,-0.871135
416,2483476813,0.490906,0.008957,0.005055,-0.871152
417,2483493480,0.490884,0.008961,0.005056,-0.871164
418,2483510147,0.490877,0.008960,0.005054,-0.871169
419,2483526814,0.490888,0.008960,0.005057,-0.871162
420,2483543481,0.490850,0.008961,0.005059,-0.871184
421,2483560148,0.490836,0.008964,0.005056,-0.871192
422,2483576815,0.490880,0.008964,0.005058,-0.871167
423,2483593482,0.490833,0.008963,0.005049,-0.871193
424,2483610149,0.490898,0.008960,0.005046,-0.871157
425,2483626816,0.490898,0.008967,0.005031,-0.871157
426,2483643483,0.490969,0.008962,0.005035,-0.871117
427,2483660150,0.490955,0.008967,0.005030,-0.871125
428,2483676817,0.490989,0.008971,0.005027,-0.871106
429,2483693484,0.490935,0.008976,0.005026,-0.871136
430,2483710151,0.490928,0.008978,0.005033,-0.871140
431,2483726818,0.490994,0.008980,0.005039,-0.871102
432,2483743485,0.491139,0.008971,0.005053,-0.871020
433,2483760152,0.491135,0.008961,0.005048,-0.871023
434,2483776819,0.491119,0.008946,0.005052,-0.871032
435,2483793486,0.491162,0.008931,0.005063,-0.871008
436,2483810153,0.491135,0.008936,0.005056,-0.871023
437,2483826820,0.491135,0.008932,0.005064,-0.871023
438,2483843487,0.491163,0.008929,0.005057,-0.871007
439,2483860154,0.491216,0.008936,0.005059,-0.870978
440,2483876821,0.491178,0.008933,0.005057,-0.870999
441,2483893488,0.491150,0.008944,0.005052,-0.871014
442,2483910155,0.491265,0.008951,0.005052,-0.870950
443,2483926822,0.491317,0.008946,0.005052,-0.870920
444,2483943489,0.491368,0.008940,0.005057,-0.870892
445,2483960156,0.491453,0.008936,0.005064,-0.870843
446,2483976823,0.491481,0.008940,0.005067,-0.870828
447,2483993490,0.491476,0.008957,0.005065,-0.870831
448,2484010157,0.491489,0.008945,0.005068,-0.870823
449,2484026824,0.491508,0.008951,0.005065,-0.870812
450,2484043491,0.491496,0.008946,0.005073,-0.870820
451,2484060158,0.491511,0.008948,0.005067,-0.870811
452,2484076825,0.491494,0.008960,0.005048,-0.870820
453,2484093492,0.491562,0.008955,0.005047,-0.870782
454,2484110159,0.491558,0.008953,0.005045,-0.870784
455,2484126826,0.491548,0.008956,0.005036,-0.870790
456,2484143493,0.491522,0.008947,0.005050,-0.870805
457,2484160160,0.491526,0.008949,0.005046,-0.870803
458,2484176827,0.491520,0.008948,0.005056,-0.870806
459,2484193494,0.491428,0.008950,0.005066,-0.870858
460,2484210161,0.491367,0.008962,0.005078,-0.870892
461,2484226828,0.491411,0.008953,0.005087,-0.870867
462,2484243495,0.491373,0.008955,0.005082,-0.870889
463,2484260162,0.491319,0.008950,0.005089,-0.870919
464,2484276829,0.491365,0.008944,0.005098,-0.870893
465,2484293496,0.491364,0.008950,0.005096,-0.870894
466,2484310163,0.491404,0.008942,0.005097,-0.870871
467,2484326830,0.491375,0.008935,0.005111,-0.870887
468,2484343497,0.491354,0.008929,0.005114,-0.870899
469,2484360164,0.491335,0.008918,0.005116,-0.870910
470,2484376831,0.491313,0.008918,0.005115,-0.870923
471,2484393498,0.491330,0.008919,0.005109,-0.870913
472,2484410165,0.491273,0.008933,0.005093,-0.870945
473,2484426832,0.491329,0.008931,0.005094,-0.870914
474,2484443499,0.491403,0.008935,0.005087,-0.870872
475,2484460166,0.491576,0.008926,0.005088,-0.870774
476,2484476833,0.491514,0.008919,0.005083,-0.870809
477,2484493500,0.491464,0.008992,0.005112,-0.870837
478,2484510167,0.491487,0.008983,0.005111,-0.870824
479,2484526834,0.491449,0.008983,0.005102,-0.870845
480,2484543501,0.491477,0.008971,0.005107,-0.870830
481,2484560168,0.491538,0.008976,0.005111,-0.870795
482,2484576835,0.491481,0.008973,0.005122,-0.870827
483,2484593502,0.491468,0.008976,0.005109,-0.870835
484,2484610169,0.491490,0.008975,0.005112,-0.870822
485,2484626836,0.491431,0.008974,0.005100,-0.870855
486,2484643503,0.491462,0.008978,0.005097,-0.870838
487,2484660170,0.491458,0.008976,0.005096,-0.870840
488,2484676837,0.491520,0.008973,0.005096,-0.870805
489,2484693504,0.491469,0.008970,0.005093,-0.870834
490,2484710171,0.491472,0.008974,0.005084,-0.870833
491,2484726838,0.491462,0.008969,0.005075,-0.870838
492,2484743505,0.491492,0.008964,0.005087,-0.870821
493,2484760172,0.491589,0.008964,0.005094,-0.870766
494,2484776839,0.491612,0.008968,0.005093,-0.870753
495,2484793506,0.491616,0.008968,0.005083,-0.870752
496,2484810173,0.491663,0.008971,0.005088,-0.870725
497,2484826840,0.491730,0.008975,0.005089,-0.870687
498,2484843507,0.491747,0.008987,0.005084,-0.870677
499,2484860174,0.491692,0.008987,0.005088,-0.870708
500,2484876841,0.491706,0.008993,0.005085,-0.870700
501,2484893508,0.491706,0.008993,0.005076,-0.870700
502,2484910175,0.491715,0.008992,0.005086,-0.870695
503,2484926842,0.491686,0.009000,0.005085,-0.870711
504,2484943509,0.491697,0.009000,0.005091,-0.870705
505,2484960176,0.491679,0.008996,0.005097,-0.870715
506,2484976843,0.491687,0.009000,0.005096,-0.870711
507,2484993510,0.491679,0.008991,0.005094,-0.870716
508,2485010177,0.491646,0.008994,0.005104,-0.870734
509,2485026844,0.491618,0.009001,0.005101,-0.870750
510,2485043511,0.491541,0.008992,0.005094,-0.870793
511,2485060178,0.491550,0.008996,0.005085,-0.870788
512,2485076845,0.491562,0.008999,0.005096,-0.870781
513,2485093512,0.491536,0.009008,0.005096,-0.870796
514,2485110179,0.491522,0.009000,0.005097,-0.870804
515,2485126846,0.491593,0.008996,0.005105,-0.870764
516,2485143513,0.491595,0.009002,0.005103,-0.870762
517,2485160180,0.491642,0.009000,0.005110,-0.870736
518,2485176847,0.491598,0.009000,0.005111,-0.870761
519,2485193514,0.491589,0.009003,0.005097,-0.870766
520,2485210181,0.491549,0.009011,0.005094,-0.870789
521,2485226848,0.491696,0.009015,0.005103,-0.870706
522,2485243515,0.491685,0.009013,0.005113,-0.870712
523,2485260182,0.491667,0.009017,0.005117,-0.870722
524,2485276849,0.491701,0.009011,0.005126,-0.870702
525,2485293516,0.491690,0.009005,0.005127,-0.870709
526,2485310183,0.491713,0.009008,0.005124,-0.870696
527,2485326850,0.491718,0.009008,0.005123,-0.870693
528,2485343517,0.491706,0.009018,0.005115,-0.870700
529,2485360184,0.491734,0.009017,0.005108,-0.870684
530,2485376851,0.491801,0.009017,0.005112,-0.870646
531,2485393518,0.491686,0.009020,0.005108,-0.870711
532,2485410185,0.491737,0.009032,0.005104,-0.870682
533,2485426852,0.491720,0.009038,0.005109,-0.870692
534,2485443519,0.491832,0.009041,0.005110,-0.870629
535,2485460186,0.491818,0.009033,0.005112,-0.870636
536,2485476853,0.491826,0.009022,0.005110,-0.870632
537,2485493520,0.491818,0.009024,0.005118,-0.870636
538,2485510187,0.491832,0.009023,0.005125,-0.870629
539,2485526854,0.491782,0.009021,0.005127,-0.870657
540,2485543521,0.491765,0.009024,0.005130,-0.870667
541,2485560188,0.491743,0.009030,0.005123,-0.870679
542,2485576855,0.491762,0.009036,0.005118,-0.870668
543,2485593522,0.491750,0.009029,0.005127,-0.870675
544,2485610189,0.491758,0.009021,0.005131,-0.870671
545,2485626856,0.491778,0.009015,0.005136,-0.870659
546,2485643523,0.491815,0.009027,0.005137,-0.870638
547,2485660190,0.491764,0.009040,0.005137,-0.870667
548,2485676857,0.491769,0.009042,0.005130,-0.870664
549,2485693524,0.491769,0.009052,0.005119,-0.870664
550,2485710191,0.491749,0.009050,0.005125,-0.870675
551,2485726858,0.491761,0.009036,0.005135,-0.870668
552,2485743525,0.491738,0.009030,0.005137,-0.870682
553,2485760192,0.491716,0.009036,0.005153,-0.870694
554,2485776859,0.491711,0.009042,0.005155,-0.870696
555,2485793526,0.491726,0.009038,0.005145,-0.870688
556,2485810193,0.491708,0.009035,0.005148,-0.870699
557,2485826860,0.491743,0.009047,0.005144,-0.870679
558,2485843527,0.491724,0.009038,0.005155,-0.870689
559,2485860194,0.491724,0.009041,0.005168,-0.870689
560,2485876861,0.491685,0.009036,0.005167,-0.870711
561,2485893528,0.491683,0.009029,0.005166,-0.870713
562,2485910195,0.491668,0.009029,0.005162,-0.870721
563,2485926862,0.491698,0.009026,0.005155,-0.870704
564,2485943529,0.491692,0.009029,0.005157,-0.870708
565,2485960196,0.491645,0.009031,0.005154,-0.870734
566,2485976863,0.491665,0.009027,0.005161,-0.870723
567,2485993530,0.491641,0.009036,0.005159,-0.870736
568,2486010197,0.491592,0.009046,0.005145,-0.870764
569,2486026864,0.491657,0.009045,0.005152,-0.870727
570,2486043531,0.491618,0.009054,0.005145,-0.870749
571,2486060198,0.491610,0.009057,0.005139,-0.870754
572,2486076865,0.491546,0.009059,0.005136,-0.870790
573,2486093532,0.491604,0.009064,0.005146,-0.870757
574,2486110199,0.491562,0.009048,0.005156,-0.870781
575,2486126866,0.491496,0.009050,0.005163,-0.870818
576,2486143533,0.491526,0.009037,0.005167,-0.870801
577,2486160200,0.491588,0.009044,0.005169,-0.870766
578,2486176867,0.491581,0.009029,0.005166,-0.870770
579,2486193534,0.491546,0.009028,0.005165,-0.870789
580,2486210201,0.491559,0.009033,0.005181,-0.870782
581,2486226868,0.491560,0.009002,0.005169,-0.870782
582,2486243535,0.491537,0.008990,0.005176,-0.870795
583,2486260202,0.491551,0.008986,0.005167,-0.870787
584,2486276869,0.491590,0.008971,0.005161,-0.870765
585,2486293536,0.491620,0.008963,0.005153,-0.870749
586,2486310203,0.491732,0.008959,0.005154,-0.870686
587,2486326870,0.491747,0.008945,0.005147,-0.870677
588,2486343537,0.491723,0.008945,0.005146,-0.870690
589,2486360204,0.491677,0.008949,0.005153,-0.870717
590,2486376871,0.491705,0.008944,0.005148,-0.870701
591,2486393538,0.491750,0.008934,0.005138,-0.870676
592,2486410205,0.491747,0.008932,0.005136,-0.870677
593,2486426872,0.491756,0.008934,0.005129,-0.870673
594,2486443539,0.491762,0.008927,0.005133,-0.870669
595,2486460206,0.491703,0.008926,0.005127,-0.870702
596,2486476873,0.491727,0.008929,0.005130,-0.870688
597,2486493540,0.491724,0.008959,0.005109,-0.870690
598,2486510207,0.491709,0.008966,0.005118,-0.870699
599,2486526874,0.491700,0.008956,0.005126,-0.870704
600,2486543541,0.491768,0.008964,0.005126,-0.870665
601,2486560208,0.491784,0.008956,0.005141,-0.870657
602,2486576875,0.491811,0.008953,0.005143,-0.870641
603,2486593542,0.491803,0.008949,0.005142,-0.870646
604,2486610209,0.491830,0.008943,0.005146,-0.870630
605,2486626876,0.491813,0.008941,0.005159,-0.870640
606,2486643543,0.491666,0.008930,0.005153,-0.870723
607,2486660210,0.491559,0.008931,0.005149,-0.870783
608,2486676877,0.491458,0.008927,0.005135,-0.870840
609,2486693544,0.491475,0.008927,0.005137,-0.870831
610,2486710211,0.491459,0.008933,0.005147,-0.870840
611,2486726878,0.491454,0.008937,0.005144,-0.870843
612,2486743545,0.491474,0.008936,0.005143,-0.870831
613,2486760212,0.491455,0.008932,0.005150,-0.870842
614,2486776879,0.491401,0.008928,0.005145,-0.870873
615,2486793546,0.491400,0.008929,0.005148,-0.870873
616,2486810213,0.491391,0.008923,0.005147,-0.870879
617,2486826880,0.491474,0.008923,0.005150,-0.870832
618,2486843547,0.491485,0.008918,0.005151,-0.870825
619,2486860214,0.491469,0.008916,0.005146,-0.870835
620,2486876881,0.491433,0.008920,0.005146,-0.870854
621,2486893548,0.491390,0.008920,0.005144,-0.870879
622,2486910215,0.491369,0.008918,0.005146,-0.870891
623,2486926882,0.491372,0.008912,0.005141,-0.870889
624,2486943549,0.491203,0.008932,0.005136,-0.870985
625,2486960216,0.491233,0.008939,0.005133,-0.870968
626,2486976883,0.491299,0.008932,0.005133,-0.870930
627,2486993550,0.491297,0.008925,0.005137,-0.870931
628,2487010217,0.491339,0.008927,0.005141,-0.870908
629,2487026884,0.491378,0.008919,0.005152,-0.870886
630,2487043551,0.491385,0.008921,0.005155,-0.870882
631,2487060218,0.491335,0.008916,0.005159,-0.870910
632,2487076885,0.491342,0.008914,0.005152,-0.870906
633,2487093552,0.491395,0.008916,0.005154,-0.870876
634,2487110219,0.491388,0.008917,0.005158,-0.870880
635,2487126886,0.491340,0.008919,0.005159,-0.870907
636,2487143553,0.491378,0.008918,0.005165,-0.870886
637,2487160220,0.491364,0.008912,0.005164,-0.870894
638,2487176887,0.491387,0.008905,0.005153,-0.870881
639,2487193554,0.491387,0.008901,0.005151,-0.870881
640,2487210221,0.491333,0.008899,0.005157,-0.870911
641,2487226888,0.491370,0.008892,0.005152,-0.870891
642,2487243555,0.491370,0.008888,0.005147,-0.870890
643,2487260222,0.491419,0.008884,0.005153,-0.870863
644,2487276889,0.491266,0.008883,0.005146,-0.870949
645,2487293556,0.491278,0.008890,0.005131,-0.870942
646,2487310223,0.491256,0.008897,0.005127,-0.870955
647,2487326890,0.491355,0.008891,0.005123,-0.870899
648,2487343557,0.491347,0.008879,0.005125,-0.870904
649,2487360224,0.491369,0.008875,0.005128,-0.870891
650,2487376891,0.491356,0.008873,0.005116,-0.870899
651,2487393558,0.491356,0.008875,0.005117,-0.870899
652,2487410225,0.491345,0.008874,0.005123,-0.870905
653,2487426892,0.491313,0.008864,0.005134,-0.870923
654,2487443559,0.491238,0.008858,0.005136,-0.870965
655,2487460226,0.491285,0.008861,0.005141,-0.870939
656,2487476893,0.491175,0.008861,0.005144,-0.871001
657,2487493560,0.491175,0.008867,0.005138,-0.871001
658,2487510227,0.491179,0.008867,0.005142,-0.870999
659,2487526894,0.491151,0.008862,0.005139,-0.871014
660,2487543561,0.491089,0.008861,0.005147,-0.871049
661,2487560228,0.491092,0.008868,0.005153,-0.871047
662,2487576895,0.491184,0.008866,0.005151,-0.870996
663,2487593562,0.491248,0.008874,0.005154,-0.870960
664,2487610229,0.491256,0.008881,0.005155,-0.870955
665,2487626896,0.491265,0.008884,0.005152,-0.870950
666,2487643563,0.491244,0.008885,0.005147,-0.870961
667,2487660230,0.491242,0.008886,0.005151,-0.870963
668,2487676897,0.491178,0.008885,0.005141,-0.870999
669,2487693564,0.491191,0.008882,0.005136,-0.870992
670,2487710231,0.491207,0.008878,0.005140,-0.870983
671,2487726898,0.491220,0.008884,0.005145,-0.870975
672,2487743565,0.491206,0.008889,0.005143,-0.870983
673,2487760232,0.491181,0.008882,0.005140,-0.870997
674,2487776899,0.491142,0.008882,0.005135,-0.871019
675,2487793566,0.491278,0.008894,0.005138,-0.870942
676,2487810233,0.491280,0.008880,0.005131,-0.870942
677,2487826900,0.491268,0.008880,0.005127,-0.870948
678,2487843567,0.491274,0.008890,0.005125,-0.870945
679,2487860234,0.491306,0.008898,0.005124,-0.870927
680,2487876901,0.491340,0.008900,0.005109,-0.870907
681,2487893568,0.491340,0.008899,0.005111,-0.870907
682,2487910235,0.491293,0.008894,0.005115,-0.870934
683,2487926902,0.491297,0.008902,0.005104,-0.870932
684,2487943569,0.491295,0.008892,0.005102,-0.870933
685,2487960236,0.491252,0.008885,0.005109,-0.870957
686,2487976903,0.491267,0.008874,0.005114,-0.870949
687,2487993570,0.491251,0.008868,0.005114,-0.870958
688,2488010237,0.491210,0.008871,0.005116,-0.870981
689,2488026904,0.491242,0.008880,0.005117,-0.870963
690,2488043571,0.491207,0.008893,0.005113,-0.870983
691,2488060238,0.491239,0.008893,0.005117,-0.870965
692,2488076905,0.491215,0.008896,0.005117,-0.870978
693,2488093572,0.491183,0.008889,0.005107,-0.870996
694,2488110239,0.491193,0.008871,0.005121,-0.870991
695,2488126906,0.491236,0.008878,0.005124,-0.870966
696,2488143573,0.491236,0.008871,0.005126,-0.870966
697,2488160240,0.491206,0.008871,0.005128,-0.870983
698,2488176907,0.491229,0.008877,0.005133,-0.870970
699,2488193574,0.491215,0.008871,0.005138,-0.870978
700,2488210241,0.491212,0.008880,0.005135,-0.870980
701,2488226908,0.491129,0.008883,0.005146,-0.871027
702,2488243575,0.491123,0.008882,0.005151,-0.871030
703,2488260242,0.491105,0.008883,0.005157,-0.871040
704,2488276909,0.491135,0.008886,0.005160,-0.871023
705,2488293576,0.491145,0.008890,0.005167,-0.871018
706,2488310243,0.491233,0.008891,0.005166,-0.870967
707,2488326910,0.491287,0.008890,0.005161,-0.870937
708,2488343577,0.491292,0.008894,0.005154,-0.870934
709,2488360244,0.491276,0.008897,0.005161,-0.870943
710,2488376911,0.491330,0.008897,0.005160,-0.870913
711,2488393578,0.491329,0.008905,0.005151,-0.870914
712,2488410245,0.491378,0.008910,0.005143,-0.870886
713,2488426912,0.491396,0.008912,0.005137,-0.870876
714,2488443579,0.491394,0.008924,0.005133,-0.870877
715,2488460246,0.491438,0.008927,0.005129,-0.870852
716,2488476913,0.491430,0.008945,0.005120,-0.870856
717,2488493580,0.491459,0.008947,0.005118,-0.870840
718,2488510247,0.491385,0.008946,0.005128,-0.870881
719,2488526914,0.491314,0.008935,0.005127,-0.870922
720,2488543581,0.491318,0.008929,0.005123,-0.870920
721,2488560248,0.491269,0.008933,0.005127,-0.870947
722,2488576915,0.491324,0.008925,0.005127,-0.870917
723,2488593582,0.491302,0.008918,0.005119,-0.870929
724,2488610249,0.491276,0.008917,0.005116,-0.870943
725,2488626916,0.491276,0.008926,0.005120,-0.870944
726,2488643583,0.491300,0.008921,0.005123,-0.870930
727,2488660250,0.491165,0.008927,0.005118,-0.871006
728,2488676917,0.491168,0.008932,0.005116,-0.871004
729,2488693584,0.491103,0.008926,0.005117,-0.871041
730,2488710251,0.491071,0.008928,0.005117,-0.871059
731,2488726918,0.491025,0.008927,0.005111,-0.871085
732,2488743585,0.491020,0.008942,0.005103,-0.871088
733,2488760252,0.490949,0.008948,0.005100,-0.871128
734,2488776919,0.490926,0.008947,0.005105,-0.871140
735,2488793586,0.490847,0.008960,0.005105,-0.871185
736,2488810253,0.490835,0.008959,0.005104,-0.871192
737,2488826920,0.490793,0.008966,0.005105,-0.871215
738,2488843587,0.490798,0.008962,0.005109,-0.871213
739,2488860254,0.490883,0.008955,0.005096,-0.871165
740,2488876921,0.490849,0.008957,0.005095,-0.871184
741,2488893588,0.490866,0.008969,0.005104,-0.871174
742,2488910255,0.490802,0.008976,0.005112,-0.871210
743,2488926922,0.490740,0.008983,0.005116,-0.871245
744,2488943589,0.490637,0.008980,0.005103,-0.871303
745,2488960256,0.490642,0.008978,0.005099,-0.871300
746,2488976923,0.490729,0.008981,0.005105,-0.871251
747,2488993590,0.490660,0.008983,0.005113,-0.871290
748,2489010257,0.490515,0.008988,0.005110,-0.871372
749,2489026924,0.490531,0.008979,0.005101,-0.871363
750,2489043591,0.490532,0.008987,0.005106,-0.871362
751,2489060258,0.490514,0.008991,0.005107,-0.871372
752,2489076925,0.490524,0.008988,0.005118,-0.871366
753,2489093592,0.490516,0.008982,0.005125,-0.871371
754,2489110259,0.490547,0.008979,0.005130,-0.871354
755,2489126926,0.490566,0.008977,0.005131,-0.871343
756,2489143593,0.490553,0.008980,0.005121,-0.871350
757,2489160260,0.490570,0.008974,0.005113,-0.871341
758,2489176927,0.490573,0.008976,0.005115,-0.871339
759,2489193594,0.490546,0.008966,0.005120,-0.871354
760,2489210261,0.490543,0.008963,0.005130,-0.871356
761,2489226928,0.490534,0.008974,0.005134,-0.871361
762,2489243595,0.490567,0.008974,0.005142,-0.871342
763,2489260262,0.490607,0.008965,0.005145,-0.871320
764,2489276929,0.490649,0.008970,0.005142,-0.871296
765,2489293596,0.490660,0.008966,0.005152,-0.871290
766,2489310263,0.490632,0.008976,0.005150,-0.871306
767,2489326930,0.490619,0.008965,0.005144,-0.871313
768,2489343597,0.490621,0.008973,0.005147,-0.871312
769,2489360264,0.490671,0.008959,0.005149,-0.871284
770,2489376931,0.490709,0.008953,0.005146,-0.871263
771,2489393598,0.490667,0.008950,0.005157,-0.871286
772,2489410265,0.490540,0.008959,0.005163,-0.871357
773,2489426932,0.490547,0.008957,0.005153,-0.871353
774,2489443599,0.490626,0.008954,0.005163,-0.871309
775,2489460266,0.490641,0.008959,0.005161,-0.871301
776,2489476933,0.490702,0.008946,0.005165,-0.871266
777,2489493600,0.490771,0.008949,0.005155,-0.871227
778,2489510267,0.490770,0.008952,0.005154,-0.871228
779,2489526934,0.490776,0.008952,0.005150,-0.871225
780,2489543601,0.490723,0.008950,0.005149,-0.871255
781,2489560268,0.490710,0.008952,0.005153,-0.871262
782,2489576935,0.490752,0.008955,0.005156,-0.871238
783,2489593602,0.490785,0.008946,0.005160,-0.871219
784,2489610269,0.490657,0.008954,0.005149,-0.871292
785,2489626936,0.490680,0.008944,0.005156,-0.871279
786,2489643603,0.490683,0.008945,0.005156,-0.871277
787,2489660270,0.490709,0.008951,0.005150,-0.871263
788,2489676937,0.490761,0.008948,0.005160,-0.871233
789,2489693604,0.490779,0.008951,0.005151,-0.871223
790,2489710271,0.490798,0.008944,0.005145,-0.871212
791,2489726938,0.490874,0.008936,0.005150,-0.871170
792,2489743605,0.490891,0.008931,0.005154,-0.871160
793,2489760272,0.490965,0.008928,0.005166,-0.871118
794,2489776939,0.490972,0.008928,0.005170,-0.871114
795,2489793606,0.491034,0.008930,0.005159,-0.871080
796,2489810273,0.491018,0.008934,0.005160,-0.871088
797,2489826940,0.491091,0.008936,0.005167,-0.871047
798,2489843607,0.491100,0.008944,0.005157,-0.871042
799,2489860274,0.491053,0.008941,0.005144,-0.871069
800,2489876941,0.491066,0.008935,0.005141,-0.871062
801,2489893608,0.491055,0.008934,0.005144,-0.871068
802,2489910275,0.490986,0.008923,0.005152,-0.871107
803,2489926942,0.491029,0.008922,0.005154,-0.871083
804,2489943609,0.490999,0.008909,0.005149,-0.871099
805,2489960276,0.490939,0.008915,0.005151,-0.871133
806,2489976943,0.490935,0.008910,0.005145,-0.871135
807,2489993610,0.490923,0.008915,0.005150,-0.871142
808,2490010277,0.490953,0.008921,0.005141,-0.871126
809,2490026944,0.490945,0.008922,0.005140,-0.871130
810,2490043611,0.490959,0.008922,0.005136,-0.871122
811,2490060278,0.490919,0.008921,0.005142,-0.871145
812,2490076945,0.490895,0.008930,0.005143,-0.871158
813,2490093612,0.490914,0.008924,0.005153,-0.871147
814,2490110279,0.490855,0.008922,0.005149,-0.871181
815,2490126946,0.490912,0.008926,0.005144,-0.871149
816,2490143613,0.490988,0.008922,0.005146,-0.871105
817,2490160280,0.490941,0.008911,0.005148,-0.871132
818,2490176947,0.490892,0.008904,0.005150,-0.871160
819,2490193614,0.490837,0.008897,0.005163,-0.871191
820,2490210281,0.490876,0.008905,0.005173,-0.871169
821,2490226948,0.490832,0.008919,0.005172,-0.871193
822,2490243615,0.490796,0.008920,0.005164,-0.871214
823,2490260282,0.490799,0.008923,0.005168,-0.871212
824,2490276949,0.490764,0.008913,0.005179,-0.871232
825,2490293616,0.490939,0.008906,0.005177,-0.871134
826,2490310283,0.491023,0.008905,0.005185,-0.871086
827,2490326950,0.491032,0.008904,0.005191,-0.871081
828,2490343617,0.491025,0.008907,0.005198,-0.871085
829,2490360284,0.491009,0.008908,0.005199,-0.871094
830,2490376951,0.491090,0.008904,0.005193,-0.871048
831,2490393618,0.491185,0.008902,0.005197,-0.870995
832,2490410285,0.491284,0.008893,0.005204,-0.870939
833,2490426952,0.491282,0.008898,0.005206,-0.870940
834,2490443619,0.491310,0.008892,0.005207,-0.870924
835,2490460286,0.491304,0.008897,0.005213,-0.870927
836,2490476953,0.491316,0.008888,0.005218,-0.870921
837,2490493620,0.491304,0.008938,0.005159,-0.870927
838,2490510287,0.491235,0.008935,0.005154,-0.870966
839,2490526954,0.491097,0.008942,0.005144,-0.871044
840,2490543621,0.491136,0.008944,0.005148,-0.871022
841,2490560288,0.491099,0.008941,0.005145,-0.871043
842,2490576955,0.491121,0.008950,0.005137,-0.871030
843,2490593622,0.491111,0.008944,0.005137,-0.871036
844,2490610289,0.491127,0.008947,0.005135,-0.871027
845,2490626956,0.491125,0.008946,0.005133,-0.871028
846,2490643623,0.491080,0.008953,0.005134,-0.871054
847,2490660290,0.491098,0.008960,0.005131,-0.871043
848,2490676957,0.491117,0.008958,0.005140,-0.871033
849,2490693624,0.491120,0.008963,0.005136,-0.871031
850,2490710291,0.491119,0.008952,0.005143,-0.871032
851,2490726958,0.491076,0.008955,0.005140,-0.871056
852,2490743625,0.491060,0.008953,0.005138,-0.871065
853,2490760292,0.491145,0.008944,0.005138,-0.871017
854,2490776959,0.491188,0.008948,0.005141,-0.870993
855,2490793626,0.491205,0.008941,0.005142,-0.870983
856,2490810293,0.491187,0.008941,0.005145,-0.870993
857,2490826960,0.491213,0.008946,0.005135,-0.870979
858,2490843627,0.491206,0.008937,0.005131,-0.870983
859,2490860294,0.491181,0.008927,0.005122,-0.870997
860,2490876961,0.491244,0.008929,0.005123,-0.870961
861,2490893628,0.491294,0.008915,0.005134,-0.870933
862,2490910295,0.491377,0.008920,0.005144,-0.870886
863,2490926962,0.491287,0.008925,0.005149,-0.870937
864,2490943629,0.491308,0.008922,0.005145,-0.870925
865,2490960296,0.491366,0.008921,0.005143,-0.870893
866,2490976963,0.491356,0.008910,0.005146,-0.870898
867,2490993630,0.491460,0.008904,0.005140,-0.870840
868,2491010297,0.491454,0.008901,0.005137,-0.870843
869,2491026964,0.491474,0.008896,0.005144,-0.870832
870,2491043631,0.491426,0.008895,0.005137,-0.870859
871,2491060298,0.491480,0.008889,0.005138,-0.870829
872,2491076965,0.491486,0.008889,0.005142,-0.870825
873,2491093632,0.491468,0.008880,0.005143,-0.870836
874,2491110299,0.491447,0.008881,0.005143,-0.870848
875,2491126966,0.491462,0.008880,0.005144,-0.870839
876,2491143633,0.491451,0.008870,0.005143,-0.870845
877,2491160300,0.491363,0.008862,0.005150,-0.870895
878,2491176967,0.491364,0.008860,0.005154,-0.870894
879,2491193634,0.491365,0.008863,0.005152,-0.870894
880,2491210301,0.491367,0.008854,0.005163,-0.870893
881,2491226968,0.491299,0.008846,0.005165,-0.870931
882,2491243635,0.491308,0.008843,0.005169,-0.870926
883,2491260302,0.491247,0.008838,0.005166,-0.870960
884,2491276969,0.491184,0.008842,0.005166,-0.870996
885,2491293636,0.491290,0.008847,0.005168,-0.870936
886,2491310303,0.491312,0.008852,0.005165,-0.870923
887,2491326970,0.491274,0.008850,0.005165,-0.870945
888,2491343637,0.491246,0.008849,0.005167,-0.870961
889,2491360304,0.491253,0.008842,0.005173,-0.870957
890,2491376971,0.491278,0.008842,0.005177,-0.870943
891,2491393638,0.491283,0.008841,0.005179,-0.870940
892,2491410305,0.491363,0.008845,0.005169,-0.870895
893,2491426972,0.491474,0.008841,0.005170,-0.870832
894,2491443639,0.491507,0.008839,0.005173,-0.870813
895,2491460306,0.491548,0.008835,0.005174,-0.870790
896,2491476973,0.491529,0.008843,0.005175,-0.870801
897,2491493640,0.491523,0.008838,0.005178,-0.870805
898,2491510307,0.491540,0.008830,0.005177,-0.870795
899,2491526974,0.491485,0.008830,0.005182,-0.870826
900,2491543641,0.491471,0.008830,0.005183,-0.870834
901,2491560308,0.491521,0.008825,0.005186,-0.870806
902,2491576975,0.491545,0.008820,0.005197,-0.870792
903,2491593642,0.491497,0.008828,0.005206,-0.870819
904,2491610309,0.491551,0.008826,0.005211,-0.870789
905,2491626976,0.491576,0.008828,0.005202,-0.870775
906,2491643643,0.491580,0.008834,0.005209,-0.870773
907,2491660310,0.491637,0.008820,0.005203,-0.870740
908,2491676977,0.491600,0.008830,0.005205,-0.870761
909,2491693644,0.491606,0.008825,0.005212,-0.870758
910,2491710311,0.491605,0.008817,0.005219,-0.870758
911,2491726978,0.491650,0.008819,0.005221,-0.870733
912,2491743645,0.491585,0.008824,0.005223,-0.870770
913,2491760312,0.491590,0.008830,0.005225,-0.870766
914,2491776979,0.491595,0.008828,0.005226,-0.870764
915,2491793646,0.491646,0.008827,0.005220,-0.870735
916,2491810313,0.491634,0.008823,0.005218,-0.870742
917,2491826980,0.491675,0.008819,0.005220,-0.870719
918,2491843647,0.491687,0.008811,0.005231,-0.870712
919,2491860314,0.491708,0.008808,0.005233,-0.870700
920,2491876981,0.491705,0.008806,0.005235,-0.870701
921,2491893648,0.491722,0.008810,0.005238,-0.870692
922,2491910315,0.491723,0.008815,0.005244,-0.870692
923,2491926982,0.491649,0.008822,0.005245,-0.870733
924,2491943649,0.491665,0.008809,0.005241,-0.870724
925,2491960316,0.491647,0.008822,0.005241,-0.870734
926,2491976983,0.491614,0.008820,0.005248,-0.870753
927,2491993650,0.491533,0.008822,0.005250,-0.870799
928,2492010317,0.491660,0.008820,0.005257,-0.870727
929,2492026984,0.491716,0.008825,0.005261,-0.870695
930,2492043651,0.491696,0.008831,0.005260,-0.870707
931,2492060318,0.491682,0.008830,0.005258,-0.870714
932,2492076985,0.491725,0.008837,0.005254,-0.870690
933,2492093652,0.491708,0.008829,0.005261,-0.870700
934,2492110319,0.491741,0.008830,0.005267,-0.870681
935,2492126986,0.491740,0.008832,0.005271,-0.870682
936,2492143653,0.491727,0.008832,0.005271,-0.870689
937,2492160320,0.491747,0.008826,0.005272,-0.870678
938,2492176987,0.491726,0.008820,0.005276,-0.870689
939,2492193654,0.491706,0.008819,0.005278,-0.870701
940,2492210321,0.491718,0.008815,0.005269,-0.870694
941,2492226988,0.491754,0.008812,0.005281,-0.870674
942,2492243655,0.491771,0.008822,0.005278,-0.870664
943,2492260322,0.491794,0.008819,0.005271,-0.870651
944,2492276989,0.491809,0.008826,0.005263,-0.870643
945,2492293656,0.491741,0.008825,0.005258,-0.870681
946,2492310323,0.491703,0.008813,0.005253,-0.870703
947,2492326990,0.491693,0.008816,0.005252,-0.870709
948,2492343657,0.491715,0.008814,0.005252,-0.870696
949,2492360324,0.491728,0.008815,0.005249,-0.870689
950,2492376991,0.491820,0.008816,0.005245,-0.870637
951,2492393658,0.491817,0.008812,0.005252,-0.870639
952,2492410325,0.491854,0.008798,0.005261,-0.870617
953,2492426992,0.491844,0.008794,0.005274,-0.870623
954,2492443659,0.491920,0.008782,0.005277,-0.870580
955,2492460326,0.491911,0.008772,0.005268,-0.870586
956,2492476993,0.491929,0.008772,0.005271,-0.870575
957,2492493660,0.491906,0.008905,0.005165,-0.870588
958,2492510327,0.491926,0.008906,0.005176,-0.870577
959,2492526994,0.491929,0.008908,0.005176,-0.870575
960,2492543661,0.491963,0.008904,0.005185,-0.870556
961,2492560328,0.492025,0.008908,0.005187,-0.870520
962,2492576995,0.491987,0.008904,0.005183,-0.870542
963,2492593662,0.491943,0.008917,0.005216,-0.870566
964,2492610329,0.491921,0.008887,0.005193,-0.870579
965,2492626996,0.491925,0.008920,0.005173,-0.870577
966,2492643663,0.491972,0.008922,0.005165,-0.870550
967,2492660330,0.491936,0.008928,0.005165,-0.870571
968,2492676997,0.491896,0.008928,0.005169,-0.870593
969,2492693664,0.491896,0.008921,0.005171,-0.870593
970,2492710331,0.491917,0.008916,0.005162,-0.870581
971,2492726998,0.491978,0.008916,0.005164,-0.870547
972,2492743665,0.491874,0.008922,0.005158,-0.870606
973,2492760332,0.491874,0.008913,0.005148,-0.870606
974,2492776999,0.491869,0.008911,0.005150,-0.870609
975,2492793666,0.491866,0.008905,0.005146,-0.870610
976,2492810333,0.491866,0.008906,0.005137,-0.870611
977,2492827000,0.491865,0.008904,0.005136,-0.870611
978,2492843667,0.491870,0.008898,0.005133,-0.870609
979,2492860334,0.491880,0.008905,0.005142,-0.870602
980,2492877001,0.491878,0.008902,0.005132,-0.870604
981,2492893668,0.491878,0.008896,0.005122,-0.870604
982,2492910335,0.491873,0.008905,0.005132,-0.870607
983,2492927002,0.491875,0.008898,0.005128,-0.870605
984,2492943669,0.491875,0.008899,0.005128,-0.870606
985,2492960336,0.491879,0.008904,0.005134,-0.870603
986,2492977003,0.491878,0.008904,0.005123,-0.870604
987,2492993670,0.491882,0.008910,0.005129,-0.870601
988,2493010337,0.491880,0.008911,0.005134,-0.870602
989,2493027004,0.491879,0.008906,0.005136,-0.870603
990,2493043671,0.491876,0.008913,0.005137,-0.870605
991,2493060338,0.491876,0.008914,0.005143,-0.870605
992,2493077005,0.491872,0.008918,0.005132,-0.870607
993,2493093672,0.491869,0.008916,0.005141,-0.870609
994,2493110339,0.491871,0.008910,0.005137,-0.870607
995,2493127006,0.491870,0.008905,0.005143,-0.870608
996,2493143673,0.491867,0.008903,0.005149,-0.870610
997,2493160340,0.491868,0.008899,0.005148,-0.870609
998,2493177007,0.491862,0.008900,0.005150,-0.870613
999,2493193674,0.491872,0.008904,0.005155,-0.870607
1000,2493210341,0.491884,0.008899,0.005144,-0.870600
1001,2493227008,0.491890,0.008901,0.005138,-0.870597
1002,2493243675,0.491875,0.008908,0.005139,-0.870605
1003,2493260342,0.491866,0.008904,0.005139,-0.870610
1004,2493277009,0.491881,0.008906,0.005141,-0.870602
1005,2493293676,0.491867,0.008918,0.005132,-0.870610
1006,2493310343,0.491898,0.008920,0.005134,-0.870592
1007,2493327010,0.491877,0.008922,0.005127,-0.870604
1008,2493343677,0.491872,0.008922,0.005139,-0.870607
1009,2493360344,0.491893,0.008924,0.005144,-0.870595
1010,2493377011,0.491908,0.008918,0.005140,-0.870587
1011,2493393678,0.491896,0.008917,0.005149,-0.870593
1012,2493410345,0.491897,0.008905,0.005158,-0.870593
1013,2493427012,0.491922,0.008907,0.005162,-0.870579
1014,2493443679,0.491929,0.008899,0.005163,-0.870575
1015,2493460346,0.491918,0.008897,0.005161,-0.870581
1016,2493477013,0.491933,0.008896,0.005160,-0.870573
1017,2493493680,0.491939,0.008900,0.005150,-0.870569
1018,2493510347,0.491909,0.008902,0.005147,-0.870586
1019,2493527014,0.491919,0.008902,0.005141,-0.870581
1020,2493543681,0.491925,0.008894,0.005143,-0.870577
1021,2493560348,0.491915,0.008900,0.005144,-0.870583
1022,2493577015,0.491921,0.008901,0.005148,-0.870579
1023,2493593682,0.491921,0.008901,0.005145,-0.870579
1024,2493610349,0.491933,0.008902,0.005142,-0.870573
1025,2493627016,0.491933,0.008896,0.005144,-0.870573
1026,2493643683,0.491951,0.008899,0.005146,-0.870562
1027,2493660350,0.491945,0.008890,0.005138,-0.870566
1028,2493677017,0.491953,0.008889,0.005144,-0.870561
1029,2493693684,0.491950,0.008887,0.005144,-0.870563
1030,2493710351,0.491938,0.008889,0.005145,-0.870570
1031,2493727018,0.491923,0.008894,0.005133,-0.870578
1032,2493743685,0.491913,0.008896,0.005119,-0.870584
1033,2493760352,0.491874,0.008894,0.005116,-0.870606
1034,2493777019,0.491878,0.008898,0.005103,-0.870604
1035,2493793686,0.491864,0.008900,0.005099,-0.870612
1036,2493810353,0.491847,0.008890,0.005109,-0.870621
1037,2493827020,0.491860,0.008900,0.005112,-0.870614
1038,2493843687,0.491829,0.008898,0.005114,-0.870632
1039,2493860354,0.491859,0.008892,0.005123,-0.870614
1040,2493877021,0.491856,0.008895,0.005112,-0.870616
1041,2493893688,0.491849,0.008889,0.005122,-0.870620
1042,2493910355,0.491840,0.008885,0.005129,-0.870626
1043,2493927022,0.491847,0.008884,0.005129,-0.870622
1044,2493943689,0.491872,0.008876,0.005132,-0.870608
1045,2493960356,0.491881,0.008872,0.005142,-0.870602
1046,2493977023,0.491900,0.008874,0.005145,-0.870592
1047,2493993690,0.491892,0.008876,0.005138,-0.870596
1048,2494010357,0.491871,0.008883,0.005144,-0.870608
1049,2494027024,0.491843,0.008877,0.005145,-0.870624
1050,2494043691,0.491838,0.008871,0.005145,-0.870627
1051,2494060358,0.491821,0.008885,0.005148,-0.870636
1052,2494077025,0.491825,0.008892,0.005148,-0.870633
1053,2494093692,0.491795,0.008894,0.005140,-0.870651
1054,2494110359,0.491788,0.008882,0.005136,-0.870655
1055,2494127026,0.491747,0.008866,0.005135,-0.870678
1056,2494143693,0.491784,0.008857,0.005132,-0.870657
1057,2494160360,0.491789,0.008870,0.005124,-0.870654
1058,2494177027,0.491785,0.008873,0.005124,-0.870656
1059,2494193694,0.491767,0.008867,0.005120,-0.870667
1060,2494210361,0.491778,0.008864,0.005123,-0.870661
1061,2494227028,0.491776,0.008870,0.005130,-0.870662
1062,2494243695,0.491757,0.008863,0.005149,-0.870673
1063,2494260362,0.491790,0.008862,0.005143,-0.870654
1064,2494277029,0.491820,0.008862,0.005142,-0.870637
1065,2494293696,0.491833,0.008867,0.005148,-0.870630
1066,2494310363,0.491854,0.008870,0.005142,-0.870618
1067,2494327030,0.491816,0.008862,0.005141,-0.870639
1068,2494343697,0.491802,0.008868,0.005130,-0.870647
1069,2494360364,0.491816,0.008853,0.005135,-0.870639
1070,2494377031,0.491804,0.008851,0.005141,-0.870646
1071,2494393698,0.491823,0.008847,0.005138,-0.870635
1072,2494410365,0.491809,0.008847,0.005134,-0.870643
1073,2494427032,0.491830,0.008847,0.005135,-0.870631
1074,2494443699,0.491826,0.008835,0.005136,-0.870633
1075,2494460366,0.491829,0.008833,0.005137,-0.870632
1076,2494477033,0.491831,0.008820,0.005133,-0.870631
1077,2494493700,0.491844,0.008885,0.005158,-0.870623
1078,2494510367,0.491843,0.008884,0.005162,-0.870624
1079,2494527034,0.491841,0.008877,0.005158,-0.870625
1080,2494543701,0.491841,0.008883,0.005139,-0.870625
1081,2494560368,0.491852,0.008877,0.005140,-0.870619
1082,2494577035,0.491829,0.008877,0.005145,-0.870632
1083,2494593702,0.491859,0.008884,0.005148,-0.870615
1084,2494610369,0.491875,0.008886,0.005149,-0.870605
1085,2494627036,0.491845,0.008880,0.005155,-0.870622
1086,2494643703,0.491833,0.008880,0.005160,-0.870629
1087,2494660370,0.491837,0.008881,0.005164,-0.870627
1088,2494677037,0.491870,0.008881,0.005184,-0.870608
1089,2494693704,0.491922,0.008868,0.005175,-0.870579
1090,2494710371,0.491996,0.008855,0.005179,-0.870537
1091,2494727038,0.492014,0.008829,0.005150,-0.870527
1092,2494743705,0.491999,0.008836,0.005126,-0.870536
1093,2494760372,0.492022,0.008837,0.005153,-0.870523
1094,2494777039,0.492021,0.008885,0.005141,-0.870523
1095,2494793706,0.492039,0.008872,0.005152,-0.870513
1096,2494810373,0.492060,0.008880,0.005149,-0.870501
1097,2494827040,0.492014,0.008885,0.005136,-0.870527
1098,2494843707,0.492002,0.008874,0.005143,-0.870534
1099,2494860374,0.491987,0.008876,0.005138,-0.870542
1100,2494877041,0.491957,0.008862,0.005142,-0.870560
1101,2494893708,0.491958,0.008856,0.005143,-0.870559
1102,2494910375,0.491946,0.008855,0.005145,-0.870566
1103,2494927042,0.491965,0.008856,0.005140,-0.870555
1104,2494943709,0.491986,0.008842,0.005149,-0.870543
1105,2494960376,0.491981,0.008845,0.005151,-0.870546
1106,2494977043,0.491914,0.008851,0.005155,-0.870584
1107,2494993710,0.491922,0.008845,0.005154,-0.870579
1108,2495010377,0.491908,0.008841,0.005152,-0.870587
1109,2495027044,0.491883,0.008833,0.005164,-0.870601
1110,2495043711,0.491892,0.008838,0.005155,-0.870596
1111,2495060378,0.491924,0.008831,0.005165,-0.870578
1112,2495077045,0.491946,0.008829,0.005151,-0.870566
1113,2495093712,0.491899,0.008817,0.005147,-0.870592
1114,2495110379,0.491907,0.008817,0.005142,-0.870588
1115,2495127046,0.491890,0.008817,0.005130,-0.870598
1116,2495143713,0.491898,0.008824,0.005133,-0.870593
1117,2495160380,0.491902,0.008822,0.005135,-0.870591
1118,2495177047,0.491892,0.008825,0.005145,-0.870596
1119,2495193714,0.491888,0.008830,0.005139,-0.870599
1120,2495210381,0.491902,0.008834,0.005134,-0.870591
1121,2495227048,0.491907,0.008826,0.005134,-0.870588
1122,2495243715,0.491890,0.008832,0.005133,-0.870598
1123,2495260382,0.491882,0.008829,0.005129,-0.870602
1124,2495277049,0.491865,0.008819,0.005133,-0.870612
1125,2495293716,0.491809,0.008825,0.005145,-0.870644
1126,2495310383,0.491808,0.008823,0.005136,-0.870644
1127,2495327050,0.491869,0.008824,0.005137,-0.870610
1128,2495343717,0.491908,0.008824,0.005144,-0.870587
1129,2495360384,0.491920,0.008822,0.005153,-0.870581
1130,2495377051,0.491912,0.008816,0.005144,-0.870585
1131,2495393718,0.491922,0.008812,0.005146,-0.870580
1132,2495410385,0.491907,0.008805,0.005153,-0.870588
1133,2495427052,0.491876,0.008811,0.005157,-0.870605
1134,2495443719,0.491914,0.008812,0.005165,-0.870584
1135,2495460386,0.491903,0.008806,0.005162,-0.870591
1136,2495477053,0.491894,0.008816,0.005152,-0.870596
1137,2495493720,0.491872,0.008816,0.005165,-0.870608
1138,2495510387,0.491864,0.008818,0.005157,-0.870612
1139,2495527054,0.491922,0.008808,0.005156,-0.870579
1140,2495543721,0.491907,0.008815,0.005152,-0.870588
1141,2495560388,0.491907,0.008817,0.005159,-0.870588
1142,2495577055,0.491923,0.008813,0.005169,-0.870579
1143,2495593722,0.491921,0.008817,0.005169,-0.870580
1144,2495610389,0.491930,0.008812,0.005167,-0.870575
1145,2495627056,0.491951,0.008813,0.005160,-0.870563
1146,2495643723,0.491914,0.008807,0.005168,-0.870584
1147,2495660390,0.491907,0.008799,0.005172,-0.870588
1148,2495677057,0.491954,0.008798,0.005170,-0.870562
1149,2495693724,0.491936,0.008806,0.005171,-0.870572
1150,2495710391,0.491866,0.008802,0.005165,-0.870612
1151,2495727058,0.491866,0.008796,0.005164,-0.870611
1152,2495743725,0.491888,0.008809,0.005174,-0.870598
1153,2495760392,0.491904,0.008800,0.005175,-0.870590
1154,2495777059,0.491942,0.008806,0.005180,-0.870568
1155,2495793726,0.491930,0.008798,0.005179,-0.870575
1156,2495810393,0.491954,0.008803,0.005176,-0.870561
1157,2495827060,0.491963,0.008786,0.005184,-0.870556
1158,2495843727,0.491897,0.008777,0.005177,-0.870594
1159,2495860394,0.491899,0.008782,0.005177,-0.870593
1160,2495877061,0.491880,0.008778,0.005171,-0.870604
1161,2495893728,0.491922,0.008779,0.005180,-0.870580
1162,2495910395,0.491995,0.008773,0.005187,-0.870538
1163,2495927062,0.492001,0.008780,0.005181,-0.870535
1164,2495943729,0.491963,0.008782,0.005185,-0.870557
1165,2495960396,0.491955,0.008769,0.005190,-0.870561
1166,2495977063,0.491963,0.008772,0.005185,-0.870557
1167,2495993730,0.491969,0.008768,0.005185,-0.870553
1168,2496010397,0.491954,0.008774,0.005194,-0.870562
1169,2496027064,0.491946,0.008775,0.005196,-0.870566
1170,2496043731,0.491974,0.008777,0.005184,-0.870550
1171,2496060398,0.491949,0.008774,0.005180,-0.870565
1172,2496077065,0.491943,0.008771,0.005181,-0.870568
1173,2496093732,0.491971,0.008765,0.005189,-0.870552
1174,2496110399,0.491968,0.008774,0.005199,-0.870554
1175,2496127066,0.491980,0.008768,0.005198,-0.870547
1176,2496143733,0.491993,0.008767,0.005199,-0.870540
1177,2496160400,0.491991,0.008772,0.005201,-0.870541
1178,2496177067,0.491985,0.008765,0.005194,-0.870545
1179,2496193734,0.491979,0.008764,0.005202,-0.870548
1180,2496210401,0.491955,0.008770,0.005206,-0.870561
1181,2496227068,0.491943,0.008774,0.005203,-0.870568
1182,2496243735,0.491923,0.008776,0.005206,-0.870579
1183,2496260402,0.491919,0.008776,0.005198,-0.870581
1184,2496277069,0.491923,0.008776,0.005198,-0.870579
1185,2496293736,0.491926,0.008772,0.005202,-0.870577
1186,2496310403,0.491924,0.008773,0.005194,-0.870579
1187,2496327070,0.491931,0.008784,0.005195,-0.870575
1188,2496343737,0.491951,0.008782,0.005191,-0.870563
1189,2496360404,0.491963,0.008780,0.005180,-0.870557
1190,2496377071,0.491938,0.008786,0.005185,-0.870571
1191,2496393738,0.491939,0.008787,0.005189,-0.870570
1192,2496410405,0.491862,0.008776,0.005192,-0.870614
1193,2496427072,0.491849,0.008784,0.005193,-0.870621
1194,2496443739,0.491852,0.008777,0.005192,-0.870619
1195,2496460406,0.491830,0.008765,0.005197,-0.870632
1196,2496477073,0.491875,0.008757,0.005200,-0.870606
1197,2496493740,0.491882,0.008856,0.005182,-0.870602
1198,2496510407,0.491877,0.008857,0.005181,-0.870605
1199,2496527074,0.491894,0.008851,0.005176,-0.870595
1200,2496543741,0.491889,0.008845,0.005173,-0.870598
1201,2496560408,0.491886,0.008841,0.005168,-0.870599
1202,2496577075,0.491859,0.008837,0.005171,-0.870615
1203,2496593742,0.491810,0.008831,0.005165,-0.870643
1204,2496610409,0.491825,0.008839,0.005152,-0.870634
1205,2496627076,0.491819,0.008834,0.005149,-0.870638
1206,2496643743,0.491818,0.008827,0.005145,-0.870638
1207,2496660410,0.491805,0.008836,0.005138,-0.870646
1208,2496677077,0.491808,0.008829,0.005139,-0.870644
1209,2496693744,0.491847,0.008821,0.005147,-0.870622
1210,2496710411,0.491860,0.008821,0.005145,-0.870615
1211,2496727078,0.491895,0.008820,0.005150,-0.870595
1212,2496743745,0.491905,0.008822,0.005151,-0.870589
1213,2496760412,0.491913,0.008818,0.005158,-0.870585
1214,2496777079,0.491923,0.008814,0.005161,-0.870579
1215,2496793746,0.491934,0.008819,0.005160,-0.870572
1216,2496810413,0.491936,0.008818,0.005147,-0.870572
1217,2496827080,0.491939,0.008823,0.005148,-0.870570
1218,2496843747,0.491943,0.008817,0.005163,-0.870567
1219,2496860414,0.491958,0.008824,0.005161,-0.870559
1220,2496877081,0.491978,0.008842,0.005154,-0.870548
1221,2496893748,0.491986,0.008834,0.005153,-0.870543
1222,2496910415,0.491972,0.008829,0.005155,-0.870551
1223,2496927082,0.491989,0.008839,0.005147,-0.870542
1224,2496943749,0.491981,0.008847,0.005145,-0.870546
1225,2496960416,0.492015,0.008853,0.005155,-0.870527
1226,2496977083,0.492025,0.008852,0.005152,-0.870521
1227,2496993750,0.492049,0.008857,0.005148,-0.870508
1228,2497010417,0.491990,0.008857,0.005140,-0.870541
1229,2497027084,0.491950,0.008857,0.005138,-0.870564
1230,2497043751,0.491914,0.008848,0.005146,-0.870584
1231,2497060418,0.491962,0.008854,0.005163,-0.870556
1232,2497077085,0.491966,0.008865,0.005155,-0.870554
1233,2497093752,0.491983,0.008859,0.005155,-0.870545
1234,2497110419,0.491961,0.008852,0.005167,-0.870557
1235,2497127086,0.491915,0.008864,0.005159,-0.870583
1236,2497143753,0.491895,0.008871,0.005159,-0.870594
1237,2497160420,0.491844,0.008871,0.005161,-0.870623
1238,2497177087,0.491867,0.008870,0.005172,-0.870610
1239,2497193754,0.491887,0.008871,0.005168,-0.870599
1240,2497210421,0.491899,0.008876,0.005164,-0.870592
1241,2497227088,0.491907,0.008871,0.005172,-0.870587
1242,2497243755,0.491906,0.008870,0.005176,-0.870588
1243,2497260422,0.491876,0.008876,0.005169,-0.870605
1244,2497277089,0.491859,0.008893,0.005166,-0.870614
1245,2497293756,0.491887,0.008901,0.005160,-0.870599
1246,2497310423,0.491982,0.008900,0.005149,-0.870545
1247,2497327090,0.491999,0.008892,0.005150,-0.870536
1248,2497343757,0.492002,0.008877,0.005150,-0.870534
1249,2497360424,0.491988,0.008889,0.005148,-0.870542
1250,2497377091,0.491984,0.008882,0.005140,-0.870544
1251,2497393758,0.491977,0.008882,0.005144,-0.870548
1252,2497410425,0.491943,0.008877,0.005162,-0.870567
1253,2497427092,0.491963,0.008873,0.005168,-0.870556
1254,2497443759,0.491977,0.008871,0.005170,-0.870548
1255,2497460426,0.491996,0.008870,0.005173,-0.870537
1256,2497477093,0.492029,0.008865,0.005166,-0.870518
1257,2497493760,0.492030,0.008858,0.005176,-0.870518
1258,2497510427,0.492047,0.008851,0.005163,-0.870509
1259,2497527094,0.492042,0.008853,0.005165,-0.870512
1260,2497543761,0.492041,0.008855,0.005166,-0.870512
1261,2497560428,0.492018,0.008863,0.005154,-0.870525
1262,2497577095,0.492018,0.008855,0.005157,-0.870525
1263,2497593762,0.492026,0.008858,0.005151,-0.870521
1264,2497610429,0.492004,0.008857,0.005146,-0.870533
1265,2497627096,0.492013,0.008860,0.005141,-0.870528
1266,2497643763,0.492054,0.008855,0.005138,-0.870505
1267,2497660430,0.492054,0.008859,0.005136,-0.870505
1268,2497677097,0.492047,0.008867,0.005134,-0.870508
1269,2497693764,0.492037,0.008864,0.005141,-0.870514
1270,2497710431,0.492038,0.008865,0.005134,-0.870514
1271,2497727098,0.492029,0.008861,0.005140,-0.870519
1272,2497743765,0.492026,0.008855,0.005144,-0.870520
1273,2497760432,0.492003,0.008857,0.005145,-0.870533
1274,2497777099,0.492028,0.008847,0.005155,-0.870519
1275,2497793766,0.492019,0.008851,0.005154,-0.870525
1276,2497810433,0.491997,0.008857,0.005150,-0.870537
1277,2497827100,0.491950,0.008850,0.005151,-0.870563
1278,2497843767,0.491946,0.008849,0.005160,-0.870565
1279,2497860434,0.491954,0.008853,0.005154,-0.870561
1280,2497877101,0.491927,0.008860,0.005152,-0.870576
1281,2497893768,0.491915,0.008869,0.005145,-0.870583
1282,2497910435,0.491902,0.008860,0.005154,-0.870590
1283,2497927102,0.491911,0.008863,0.005146,-0.870586
1284,2497943769,0.491909,0.008869,0.005155,-0.870587
1285,2497960436,0.491878,0.008868,0.005162,-0.870604
1286,2497977103,0.491892,0.008867,0.005172,-0.870596
1287,2497993770,0.491892,0.008867,0.005164,-0.870596
1288,2498010437,0.491935,0.008869,0.005156,-0.870572
1289,2498027104,0.491923,0.008869,0.005144,-0.870578
1290,2498043771,0.491847,0.008865,0.005140,-0.870622
1291,2498060438,0.491845,0.008864,0.005146,-0.870623
1292,2498077105,0.491947,0.008868,0.005140,-0.870565
1293,2498093772,0.491950,0.008870,0.005149,-0.870563
1294,2498110439,0.491932,0.008877,0.005147,-0.870573
1295,2498127106,0.491926,0.008887,0.005149,-0.870577
1296,2498143773,0.491919,0.008885,0.005135,-0.870581
1297,2498160440,0.491922,0.008890,0.005145,-0.870579
1298,2498177107,0.491911,0.008887,0.005138,-0.870585
1299,2498193774,0.491894,0.008890,0.005132,-0.870595
1300,2498210441,0.491900,0.008886,0.005128,-0.870591
1301,2498227108,0.491920,0.008878,0.005132,-0.870580
1302,2498243775,0.491917,0.008876,0.005134,-0.870582
1303,2498260442,0.491929,0.008880,0.005131,-0.870575
1304,2498277109,0.492019,0.008878,0.005134,-0.870524
1305,2498293776,0.492017,0.008875,0.005126,-0.870525
1306,2498310443,0.492018,0.008882,0.005124,-0.870525
1307,2498327110,0.492012,0.008883,0.005118,-0.870528
1308,2498343777,0.492011,0.008889,0.005115,-0.870529
1309,2498360444,0.492027,0.008881,0.005120,-0.870520
1310,2498377111,0.492038,0.008894,0.005104,-0.870514
1311,2498393778,0.492055,0.008911,0.005111,-0.870504
1312,2498410445,0.492049,0.008914,0.005114,-0.870507
1313,2498427112,0.492046,0.008917,0.005107,-0.870509
1314,2498443779,0.492049,0.008918,0.005098,-0.870507
1315,2498460446,0.492044,0.008916,0.005095,-0.870510
1316,2498477113,0.492035,0.008909,0.005100,-0.870515
1317,2498493780,0.492012,0.008863,0.005160,-0.870529
1318,2498510447,0.492006,0.008860,0.005154,-0.870532
1319,2498527114,0.492030,0.008859,0.005162,-0.870518
1320,2498543781,0.492012,0.008864,0.005165,-0.870528
1321,2498560448,0.492030,0.008867,0.005166,-0.870518
1322,2498577115,0.492029,0.008866,0.005169,-0.870518
1323,2498593782,0.492025,0.008874,0.005169,-0.870521
1324,2498610449,0.492006,0.008881,0.005169,-0.870531
1325,2498627116,0.492016,0.008881,0.005160,-0.870526
1326,2498643783,0.492024,0.008893,0.005149,-0.870521
1327,2498660450,0.492019,0.008897,0.005162,-0.870524
1328,2498677117,0.492026,0.008888,0.005150,-0.870520
1329,2498693784,0.492028,0.008889,0.005147,-0.870519
1330,2498710451,0.492023,0.008895,0.005143,-0.870522
1331,2498727118,0.492044,0.008904,0.005140,-0.870510
1332,2498743785,0.492041,0.008909,0.005137,-0.870512
1333,2498760452,0.492065,0.008905,0.005136,-0.870498
1334,2498777119,0.492058,0.008909,0.005134,-0.870502
1335,2498793786,0.492080,0.008914,0.005130,-0.870490
1336,2498810453,0.492081,0.008921,0.005124,-0.870489
1337,2498827120,0.492085,0.008929,0.005124,-0.870486
1338,2498843787,0.492090,0.008936,0.005115,-0.870484
1339,2498860454,0.492111,0.008930,0.005120,-0.870472
1340,2498877121,0.492132,0.008934,0.005108,-0.870460
1341,2498893788,0.492118,0.008938,0.005102,-0.870468
1342,2498910455,0.492105,0.008934,0.005105,-0.870475
1343,2498927122,0.492105,0.008936,0.005109,-0.870475
1344,2498943789,0.492102,0.008929,0.005108,-0.870477
1345,2498960456,0.492112,0.008931,0.005109,-0.870471
1346,2498977123,0.492062,0.008934,0.005113,-0.870500
1347,2498993790,0.492066,0.008945,0.005106,-0.870497
1348,2499010457,0.492079,0.008935,0.005116,-0.870490
1349,2499027124,0.492074,0.008934,0.005123,-0.870493
1350,2499043791,0.492057,0.008929,0.005118,-0.870503
1351,2499060458,0.492052,0.008918,0.005119,-0.870506
1352,2499077125,0.492058,0.008917,0.005126,-0.870502
1353,2499093792,0.492065,0.008910,0.005129,-0.870498
1354,2499110459,0.492069,0.008911,0.005135,-0.870496
1355,2499127126,0.492078,0.008906,0.005143,-0.870490
1356,2499143793,0.492077,0.008899,0.005144,-0.870491
1357,2499160460,0.492082,0.008904,0.005143,-0.870488
1358,2499177127,0.492063,0.008904,0.005144,-0.870499
1359,2499193794,0.492073,0.008912,0.005130,-0.870494
1360,2499210461,0.492085,0.008915,0.005125,-0.870486
1361,2499227128,0.492105,0.008918,0.005123,-0.870475
1362,2499243795,0.492118,0.008918,0.005122,-0.870468
1363,2499260462,0.492159,0.008919,0.005129,-0.870445
1364,2499277129,0.492160,0.008918,0.005128,-0.870444
1365,2499293796,0.492158,0.008908,0.005146,-0.870445
1366,2499310463,0.492180,0.008904,0.005145,-0.870433
1367,2499327130,0.492201,0.008905,0.005145,-0.870421
1368,2499343797,0.492241,0.008894,0.005127,-0.870399
1369,2499360464,0.492272,0.008893,0.005119,-0.870381
1370,2499377131,0.492263,0.008899,0.005124,-0.870386
1371,2499393798,0.492252,0.008911,0.005111,-0.870392
1372,2499410465,0.492225,0.008913,0.005112,-0.870408
1373,2499427132,0.492225,0.008923,0.005114,-0.870407
1374,2499443799,0.492242,0.008927,0.005120,-0.870398
1375,2499460466,0.492248,0.008924,0.005119,-0.870395
1376,2499477133,0.492247,0.008928,0.005125,-0.870395
1377,2499493800,0.492247,0.008936,0.005139,-0.870395
1378,2499510467,0.492253,0.008929,0.005146,-0.870392
1379,2499527134,0.492257,0.008930,0.005145,-0.870389
1380,2499543801,0.492270,0.008926,0.005147,-0.870382
1381,2499560468,0.492248,0.008924,0.005146,-0.870394
1382,2499577135,0.492253,0.008929,0.005142,-0.870392
1383,2499593802,0.492230,0.008934,0.005141,-0.870405
1384,2499610469,0.492223,0.008934,0.005138,-0.870408
1385,2499627136,0.492222,0.008936,0.005133,-0.870409
1386,2499643803,0.492206,0.008936,0.005138,-0.870418
1387,2499660470,0.492237,0.008931,0.005141,-0.870400
1388,2499677137,0.492240,0.008929,0.005140,-0.870399
1389,2499693804,0.492231,0.008923,0.005141,-0.870404
1390,2499710471,0.492260,0.008924,0.005144,-0.870387
1391,2499727138,0.492264,0.008927,0.005148,-0.870385
1392,2499743805,0.492222,0.008920,0.005144,-0.870409
1393,2499760472,0.492220,0.008927,0.005128,-0.870410
1394,2499777139,0.492179,0.008921,0.005122,-0.870433
1395,2499793806,0.492173,0.008919,0.005115,-0.870437
1396,2499810473,0.492135,0.008928,0.005119,-0.870458
1397,2499827140,0.492158,0.008922,0.005129,-0.870445
1398,2499843807,0.492144,0.008911,0.005133,-0.870453
1399,2499860474,0.492158,0.008917,0.005127,-0.870445
1400,2499877141,0.492156,0.008922,0.005139,-0.870446
1401,2499893808,0.492132,0.008926,0.005135,-0.870460
1402,2499910475,0.492133,0.008920,0.005136,-0.870459
1403,2499927142,0.492119,0.008922,0.005145,-0.870467
1404,2499943809,0.492087,0.008927,0.005137,-0.870485
1405,2499960476,0.492095,0.008914,0.005141,-0.870481
1406,2499977143,0.492082,0.008908,0.005136,-0.870488
1407,2499993810,0.492085,0.008911,0.005132,-0.870487
1408,2500010477,0.492090,0.008903,0.005138,-0.870484
1409,2500027144,0.492084,0.008905,0.005150,-0.870487
1410,2500043811,0.492089,0.008900,0.005141,-0.870485
1411,2500060478,0.492085,0.008888,0.005143,-0.870487
1412,2500077145,0.492082,0.008898,0.005140,-0.870488
1413,2500093812,0.492072,0.008902,0.005142,-0.870494
1414,2500110479,0.492088,0.008901,0.005137,-0.870485
1415,2500127146,0.492098,0.008896,0.005137,-0.870479
1416,2500143813,0.492098,0.008889,0.005143,-0.870480
1417,2500160480,0.492069,0.008893,0.005136,-0.870496
1418,2500177147,0.492073,0.008892,0.005139,-0.870494
1419,2500193814,0.492067,0.008887,0.005142,-0.870497
1420,2500210481,0.492052,0.008892,0.005133,-0.870506
1421,2500227148,0.492057,0.008896,0.005112,-0.870503
1422,2500243815,0.492043,0.008889,0.005097,-0.870511
1423,2500260482,0.492021,0.008891,0.005095,-0.870523
1424,2500277149,0.492049,0.008895,0.005085,-0.870507
1425,2500293816,0.492062,0.008889,0.005084,-0.870500
1426,2500310483,0.492146,0.008894,0.005085,-0.870452
1427,2500327150,0.492160,0.008890,0.005101,-0.870445
1428,2500343817,0.492172,0.008888,0.005100,-0.870438
1429,2500360484,0.492162,0.008882,0.005115,-0.870444
1430,2500377151,0.492174,0.008885,0.005115,-0.870437
1431,2500393818,0.492145,0.008887,0.005114,-0.870453
1432,2500410485,0.492108,0.008889,0.005122,-0.870474
1433,2500427152,0.492093,0.008885,0.005117,-0.870483
1434,2500443819,0.492091,0.008894,0.005123,-0.870483
1435,2500460486,0.492094,0.008895,0.005119,-0.870482
1436,2500477153,0.492102,0.008896,0.005135,-0.870477
1437,2500493820,0.492064,0.008882,0.005138,-0.870499
1438,2500510487,0.492094,0.008885,0.005139,-0.870482
1439,2500527154,0.492116,0.008889,0.005129,-0.870469
1440,2500543821,0.492124,0.008870,0.005119,-0.870465
1441,2500560488,0.492150,0.008865,0.005126,-0.870451
1442,2500577155,0.492151,0.008864,0.005125,-0.870450
1443,2500593822,0.492152,0.008854,0.005113,-0.870449
1444,2500610489,0.492146,0.008854,0.005110,-0.870453
1445,2500627156,0.492114,0.008862,0.005103,-0.870471
1446,2500643823,0.492115,0.008844,0.005107,-0.870471
1447,2500660490,0.492114,0.008843,0.005110,-0.870471
1448,2500677157,0.492112,0.008842,0.005106,-0.870472
1449,2500693824,0.492116,0.008847,0.005114,-0.870470
1450,2500710491,0.492109,0.008844,0.005119,-0.870474
1451,2500727158,0.492094,0.008839,0.005132,-0.870482
1452,2500743825,0.492086,0.008839,0.005131,-0.870487
1453,2500760492,0.492104,0.008831,0.005125,-0.870477
1454,2500777159,0.492108,0.008837,0.005124,-0.870475
1455,2500793826,0.492057,0.008840,0.005119,-0.870503
1456,2500810493,0.492049,0.008841,0.005109,-0.870508
1457,2500827160,0.492046,0.008840,0.005115,-0.870510
1458,2500843827,0.492045,0.008835,0.005110,-0.870510
1459,2500860494,0.492047,0.008827,0.005117,-0.870509
1460,2500877161,0.492032,0.008821,0.005114,-0.870518
1461,2500893828,0.492058,0.008818,0.005117,-0.870503
1462,2500910495,0.492084,0.008809,0.005113,-0.870488
1463,2500927162,0.492081,0.008816,0.005101,-0.870490
1464,2500943829,0.492084,0.008813,0.005102,-0.870488
1465,2500960496,0.492088,0.008803,0.005103,-0.870486
1466,2500977163,0.492079,0.008807,0.005109,-0.870491
1467,2500993830,0.492120,0.008805,0.005102,-0.870468
1468,2501010497,0.492151,0.008808,0.005107,-0.870450
1469,2501027164,0.492119,0.008814,0.005100,-0.870468
1470,2501043831,0.492114,0.008806,0.005112,-0.870471
1471,2501060498,0.492106,0.008798,0.005112,-0.870476
1472,2501077165,0.492133,0.008814,0.005107,-0.870461
1473,2501093832,0.492128,0.008805,0.005105,-0.870464
1474,2501110499,0.492124,0.008811,0.005098,-0.870466
1475,2501127166,0.492122,0.008804,0.005101,-0.870467
1476,2501143833,0.492178,0.008800,0.005096,-0.870435
1477,2501160500,0.492163,0.008798,0.005094,-0.870444
1478,2501177167,0.492152,0.008799,0.005104,-0.870450
1479,2501193834,0.492154,0.008797,0.005105,-0.870449
1480,2501210501,0.492161,0.008791,0.005106,-0.870445
1481,2501227168,0.492091,0.008796,0.005098,-0.870485
1482,2501243835,0.492083,0.008792,0.005098,-0.870489
1483,2501260502,0.492088,0.008799,0.005101,-0.870486
1484,2501277169,0.492076,0.008795,0.005095,-0.870493
1485,2501293836,0.492046,0.008800,0.005088,-0.870510
1486,2501310503,0.492020,0.008801,0.005087,-0.870525
1487,2501327170,0.492077,0.008798,0.005095,-0.870493
1488,2501343837,0.492061,0.008799,0.005085,-0.870502
1489,2501360504,0.492044,0.008795,0.005094,-0.870511
1490,2501377171,0.492056,0.008796,0.005086,-0.870504
1491,2501393838,0.492064,0.008786,0.005079,-0.870500
1492,2501410505,0.492055,0.008787,0.005066,-0.870505
1493,2501427172,0.492030,0.008786,0.005071,-0.870519
1494,2501443839,0.492025,0.008788,0.005066,-0.870522
1495,2501460506,0.492106,0.008783,0.005067,-0.870476
1496,2501477173,0.492107,0.008782,0.005082,-0.870476
1497,2501493840,0.492101,0.008776,0.005082,-0.870479
1498,2501510507,0.492076,0.008784,0.005075,-0.870493
1499,2501527174,0.492072,0.008790,0.005076,-0.870495
1500,2501543841,0.492129,0.008784,0.005075,-0.870463
1501,2501560508,0.492133,0.008783,0.005067,-0.870461
1502,2501577175,0.492102,0.008785,0.005071,-0.870479
1503,2501593842,0.492111,0.008782,0.005075,-0.870473
1504,2501610509,0.492119,0.008782,0.005076,-0.870469
1505,2501627176,0.492102,0.008771,0.005074,-0.870479
1506,2501643843,0.492096,0.008771,0.005075,-0.870482
1507,2501660510,0.492087,0.008778,0.005080,-0.870487
1508,2501677177,0.492084,0.008786,0.005085,-0.870489
1509,2501693844,0.492107,0.008794,0.005088,-0.870476
1510,2501710511,0.492086,0.008792,0.005092,-0.870488
1511,2501727178,0.492092,0.008793,0.005089,-0.870484
1512,2501743845,0.492104,0.008801,0.005091,-0.870477
1513,2501760512,0.492120,0.008808,0.005088,-0.870468
1514,2501777179,0.492125,0.008807,0.005083,-0.870465
1515,2501793846,0.492156,0.008799,0.005087,-0.870448
1516,2501810513,0.492229,0.008799,0.005090,-0.870407
1517,2501827180,0.492228,0.008794,0.005081,-0.870407
1518,2501843847,0.492233,0.008806,0.005086,-0.870405
1519,2501860514,0.492165,0.008800,0.005079,-0.870443
1520,2501877181,0.492122,0.008792,0.005074,-0.870467
1521,2501893848,0.492115,0.008787,0.005074,-0.870471
1522,2501910515,0.492183,0.008792,0.005067,-0.870433
1523,2501927182,0.492235,0.008803,0.005062,-0.870403
1524,2501943849,0.492239,0.008805,0.005067,-0.870401
1525,2501960516,0.492231,0.008799,0.005069,-0.870405
1526,2501977183,0.492256,0.008799,0.005067,-0.870392
1527,2501993850,0.492260,0.008789,0.005068,-0.870389
1528,2502010517,0.492273,0.008782,0.005067,-0.870382
1529,2502027184,0.492292,0.008778,0.005067,-0.870372
1530,2502043851,0.492293,0.008775,0.005073,-0.870371
1531,2502060518,0.492276,0.008770,0.005070,-0.870381
1532,2502077185,0.492254,0.008773,0.005066,-0.870393
1533,2502093852,0.492285,0.008770,0.005066,-0.870375
1534,2502110519,0.492318,0.008766,0.005070,-0.870357
1535,2502127186,0.492375,0.008774,0.005068,-0.870324
1536,2502143853,0.492378,0.008775,0.005060,-0.870323
1537,2502160520,0.492354,0.008775,0.005065,-0.870337
1538,2502177187,0.492344,0.008784,0.005054,-0.870342
1539,2502193854,0.492394,0.008774,0.005056,-0.870314
1540,2502210521,0.492378,0.008773,0.005047,-0.870323
1541,2502227188,0.492379,0.008770,0.005050,-0.870322
1542,2502243855,0.492370,0.008754,0.005052,-0.870327
1543,2502260522,0.492376,0.008744,0.005042,-0.870324
1544,2502277189,0.492397,0.008748,0.005039,-0.870313
1545,2502293856,0.492384,0.008748,0.005043,-0.870320
1546,2502310523,0.492317,0.008741,0.005037,-0.870358
1547,2502327190,0.492345,0.008736,0.005028,-0.870342
1548,2502343857,0.492379,0.008741,0.005032,-0.870323
1549,2502360524,0.492358,0.008747,0.005025,-0.870335
1550,2502377191,0.492358,0.008752,0.005032,-0.870335
1551,2502393858,0.492360,0.008750,0.005031,-0.870333
1552,2502410525,0.492360,0.008752,0.005030,-0.870333
1553,2502427192,0.492379,0.008751,0.005023,-0.870323
1554,2502443859,0.492424,0.008752,0.005025,-0.870297
1555,2502460526,0.492417,0.008743,0.005032,-0.870301
1556,2502477193,0.492438,0.008747,0.005023,-0.870290
1557,2502493860,0.492425,0.008826,0.005149,-0.870295
1558,2502510527,0.492447,0.008832,0.005152,-0.870282
1559,2502527194,0.492458,0.008832,0.005158,-0.870277
1560,2502543861,0.492463,0.008828,0.005160,-0.870274
1561,2502560528,0.492451,0.008828,0.005167,-0.870280
1562,2502577195,0.492382,0.008832,0.005171,-0.870320
1563,2502593862,0.492410,0.008832,0.005174,-0.870303
1564,2502610529,0.492394,0.008838,0.005169,-0.870313
1565,2502627196,0.492417,0.008843,0.005166,-0.870300
1566,2502643863,0.492440,0.008848,0.005167,-0.870286
1567,2502660530,0.492428,0.008846,0.005173,-0.870293
1568,2502677197,0.492420,0.008844,0.005175,-0.870297
1569,2502693864,0.492431,0.008833,0.005177,-0.870292
1570,2502710531,0.492420,0.008837,0.005174,-0.870298
1571,2502727198,0.492374,0.008848,0.005177,-0.870323
1572,2502743865,0.492379,0.008853,0.005178,-0.870321
1573,2502760532,0.492375,0.008847,0.005177,-0.870323
1574,2502777199,0.492405,0.008850,0.005183,-0.870306
1575,2502793866,0.492461,0.008852,0.005193,-0.870274
1576,2502810533,0.492427,0.008853,0.005189,-0.870293
1577,2502827200,0.492421,0.008858,0.005182,-0.870297
1578,2502843867,0.492423,0.008852,0.005177,-0.870296
1579,2502860534,0.492429,0.008853,0.005178,-0.870292
1580,2502877201,0.492429,0.008860,0.005183,-0.870292
1581,2502893868,0.492423,0.008862,0.005176,-0.870296
1582,2502910535,0.492438,0.008857,0.005175,-0.870287
1583,2502927202,0.492410,0.008862,0.005176,-0.870303
1584,2502943869,0.492429,0.008860,0.005171,-0.870293
1585,2502960536,0.492410,0.008862,0.005168,-0.870303
1586,2502977203,0.492395,0.008869,0.005161,-0.870312
1587,2502993870,0.492399,0.008865,0.005178,-0.870309
1588,2503010537,0.492433,0.008862,0.005179,-0.870290
1589,2503027204,0.492453,0.008863,0.005175,-0.870279
1590,2503043871,0.492461,0.008865,0.005180,-0.870274
1591,2503060538,0.492468,0.008859,0.005190,-0.870270
1592,2503077205,0.492463,0.008853,0.005187,-0.870273
1593,2503093872,0.492449,0.008859,0.005185,-0.870281
1594,2503110539,0.492445,0.008856,0.005193,-0.870283
1595,2503127206,0.492446,0.008864,0.005184,-0.870283
1596,2503143873,0.492463,0.008869,0.005184,-0.870273
1597,2503160540,0.492491,0.008872,0.005177,-0.870257
1598,2503177207,0.492487,0.008868,0.005171,-0.870259
1599,2503193874,0.492489,0.008862,0.005176,-0.870258
1600,2503210541,0.492528,0.008856,0.005184,-0.870236
1601,2503227208,0.492512,0.008855,0.005188,-0.870246
1602,2503243875,0.492526,0.008858,0.005192,-0.870237
1603,2503260542,0.492521,0.008855,0.005194,-0.870241
1604,2503277209,0.492502,0.008866,0.005186,-0.870251
1605,2503293876,0.492507,0.008863,0.005178,-0.870248
1606,2503310543,0.492501,0.008853,0.005180,-0.870252
1607,2503327210,0.492502,0.008847,0.005183,-0.870251
1608,2503343877,0.492502,0.008847,0.005177,-0.870251
1609,2503360544,0.492518,0.008842,0.005183,-0.870242
1610,2503377211,0.492403,0.008832,0.005175,-0.870308
1611,2503393878,0.492400,0.008828,0.005172,-0.870309
1612,2503410545,0.492383,0.008831,0.005165,-0.870319
1613,2503427212,0.492383,0.008828,0.005156,-0.870319
1614,2503443879,0.492406,0.008827,0.005153,-0.870306
1615,2503460546,0.492409,0.008827,0.005156,-0.870304
1616,2503477213,0.492418,0.008831,0.005164,-0.870299
1617,2503493880,0.492411,0.008815,0.005172,-0.870303
1618,2503510547,0.492399,0.008822,0.005166,-0.870310
1619,2503527214,0.492401,0.008826,0.005166,-0.870309
1620,2503543881,0.492388,0.008825,0.005180,-0.870316
1621,2503560548,0.492392,0.008830,0.005168,-0.870313
1622,2503577215,0.492405,0.008830,0.005171,-0.870306
1623,2503593882,0.492412,0.008827,0.005176,-0.870302
1624,2503610549,0.492400,0.008820,0.005176,-0.870309
1625,2503627216,0.492398,0.008818,0.005173,-0.870310
1626,2503643883,0.492406,0.008828,0.005174,-0.870306
1627,2503660550,0.492400,0.008830,0.005165,-0.870309
1628,2503677217,0.492377,0.008819,0.005177,-0.870322
1629,2503693884,0.492407,0.008815,0.005178,-0.870305
1630,2503710551,0.492453,0.008822,0.005175,-0.870279
1631,2503727218,0.492439,0.008831,0.005179,-0.870287
1632,2503743885,0.492447,0.008833,0.005182,-0.870283
1633,2503760552,0.492444,0.008840,0.005175,-0.870284
1634,2503777219,0.492442,0.008841,0.005183,-0.870285
1635,2503793886,0.492440,0.008846,0.005181,-0.870286
1636,2503810553,0.492431,0.008840,0.005178,-0.870291
1637,2503827220,0.492414,0.008841,0.005185,-0.870301
1638,2503843887,0.492422,0.008842,0.005184,-0.870296
1639,2503860554,0.492374,0.008841,0.005178,-0.870324
1640,2503877221,0.492397,0.008832,0.005179,-0.870311
1641,2503893888,0.492424,0.008833,0.005198,-0.870296
1642,2503910555,0.492405,0.008830,0.005199,-0.870306
1643,2503927222,0.492405,0.008831,0.005190,-0.870306
1644,2503943889,0.492407,0.008829,0.005190,-0.870305
1645,2503960556,0.492409,0.008840,0.005189,-0.870304
1646,2503977223,0.492406,0.008840,0.005187,-0.870306
1647,2503993890,0.492460,0.008840,0.005190,-0.870275
1648,2504010557,0.492485,0.008839,0.005192,-0.870261
1649,2504027224,0.492481,0.008833,0.005190,-0.870263
1650,2504043891,0.492475,0.008826,0.005187,-0.870266
1651,2504060558,0.492432,0.008813,0.005189,-0.870291
1652,2504077225,0.492440,0.008821,0.005187,-0.870286
1653,2504093892,0.492401,0.008816,0.005185,-0.870308
1654,2504110559,0.492310,0.008820,0.005185,-0.870360
1655,2504127226,0.492274,0.008817,0.005189,-0.870380
1656,2504143893,0.492271,0.008819,0.005202,-0.870382
1657,2504160560,0.492290,0.008821,0.005207,-0.870371
1658,2504177227,0.492279,0.008817,0.005210,-0.870377
1659,2504193894,0.492295,0.008827,0.005206,-0.870368
1660,2504210561,0.492244,0.008827,0.005215,-0.870397
1661,2504227228,0.492242,0.008840,0.005217,-0.870398
1662,2504243895,0.492253,0.008846,0.005212,-0.870392
1663,2504260562,0.492251,0.008834,0.005201,-0.870393
1664,2504277229,0.494316,0.004950,0.002676,-0.869265
1665,2504293896,0.498058,0.003838,0.002761,-0.867131
1666,2504310563,0.502767,0.004147,0.002527,-0.864408
1667,2504327230,0.515238,0.004361,0.001704,-0.857035
1668,2504343897,0.528123,0.007754,0.003322,-0.849126
1669,2504360564,0.542959,0.011606,0.005564,-0.839661
1670,2504377231,0.575411,0.011217,0.006336,-0.817763
1671,2504393898,0.600522,0.013649,-0.000465,-0.799492
1672,2504410565,0.629549,0.032928,-0.000354,-0.776263
1673,2504427232,0.656911,0.055191,-0.009350,-0.751888
1674,2504443899,0.658863,0.080115,-0.016025,-0.747813
1675,2504460566,0.659181,0.102877,-0.037140,-0.743988
1676,2504477233,0.667619,0.111999,-0.080125,-0.731657
1677,2504493900,0.677197,0.135143,-0.120534,-0.713171
1678,2504510567,0.679873,0.156354,-0.162947,-0.697693
1679,2504527234,0.675562,0.155235,-0.189602,-0.695391
1680,2504543901,0.665953,0.142194,-0.211044,-0.701248
1681,2504560568,0.652850,0.124853,-0.246868,-0.705164
1682,2504577235,0.640090,0.121133,-0.289312,-0.701364
1683,2504593902,0.625630,0.120135,-0.334120,-0.694636
1684,2504610569,0.612237,0.116174,-0.363297,-0.692593
1685,2504627236,0.599763,0.121289,-0.371635,-0.698184
1686,2504643903,0.579602,0.147645,-0.370612,-0.710570
1687,2504660570,0.537754,0.180722,-0.360666,-0.740325
1688,2504677237,0.491025,0.211159,-0.350657,-0.768991
1689,2504693904,0.476957,0.240276,-0.350591,-0.769328
1690,2504710571,0.488818,0.270542,-0.349597,-0.752094
1691,2504727238,0.504861,0.298285,-0.350546,-0.730247
1692,2504743905,0.515189,0.319758,-0.366632,-0.705631
1693,2504760572,0.528847,0.335419,-0.383576,-0.678738
1694,2504777239,0.546575,0.346084,-0.395285,-0.652098
1695,2504793906,0.570210,0.351860,-0.402732,-0.623589
1696,2504810573,0.595104,0.353151,-0.409221,-0.594705
1697,2504827240,0.617878,0.350582,-0.413573,-0.569453
1698,2504843907,0.644168,0.349191,-0.402545,-0.548700
1699,2504860574,0.653126,0.382864,-0.413925,-0.505478
1700,2504877241,0.668928,0.389058,-0.418546,-0.475384
1701,2504893908,0.680648,0.390832,-0.415837,-0.459400
1702,2504910575,0.689853,0.391619,-0.412988,-0.447414
1703,2504927242,0.695112,0.396150,-0.409728,-0.438188
1704,2504943909,0.696198,0.404591,-0.407565,-0.430703
1705,2504960576,0.693611,0.408990,-0.406281,-0.431935
1706,2504977243,0.686848,0.411784,-0.406426,-0.439878
1707,2504993910,0.677728,0.413616,-0.408679,-0.450099
1708,2505010577,0.668270,0.414496,-0.414718,-0.457840
1709,2505027244,0.654405,0.421014,-0.421696,-0.465482
1710,2505043911,0.635184,0.437593,-0.428669,-0.470422
1711,2505060578,0.612802,0.461083,-0.439518,-0.467654
1712,2505077245,0.588849,0.486680,-0.452826,-0.459727
1713,2505093912,0.564877,0.500486,-0.473247,-0.454385
1714,2505110579,0.542605,0.503590,-0.492906,-0.457188
1715,2505127246,0.524972,0.502506,-0.508497,-0.461869
1716,2505143913,0.509317,0.501817,-0.525062,-0.461613
1717,2505160580,0.484893,0.505739,-0.532980,-0.474384
1718,2505177247,0.470701,0.521746,-0.525953,-0.479162
1719,2505193914,0.466776,0.529041,-0.519040,-0.482528
1720,2505210581,0.473787,0.532167,-0.511338,-0.480476
1721,2505227248,0.486416,0.537494,-0.503721,-0.469857
1722,2505243915,0.499082,0.545640,-0.499291,-0.451556
1723,2505260582,0.512661,0.550534,-0.506901,-0.420883
1724,2505277249,0.521162,0.550958,-0.529388,-0.380243
1725,2505293916,0.508747,0.557779,-0.551010,-0.355593
1726,2505310583,0.496259,0.563545,-0.571246,-0.331395
1727,2505327250,0.490919,0.566617,-0.587943,-0.303755
1728,2505343917,0.486131,0.578253,-0.594883,-0.274617
1729,2505360584,0.476669,0.597790,-0.591715,-0.255553
1730,2505377251,0.463318,0.614869,-0.589206,-0.245171
1731,2505393918,0.452189,0.622822,-0.591507,-0.240289
1732,2505410585,0.447129,0.623545,-0.594408,-0.240719
1733,2505427252,0.447010,0.617645,-0.597850,-0.247531
1734,2505443919,0.451778,0.606067,-0.600732,-0.260196
1735,2505460586,0.459113,0.590732,-0.602142,-0.278705
1736,2505477253,0.468710,0.573195,-0.601745,-0.299436
1737,2505493920,0.478265,0.555574,-0.600350,-0.319657
1738,2505510587,0.488002,0.538856,-0.598038,-0.337401
1739,2505527254,0.500750,0.521667,-0.594676,-0.351388
1740,2505543921,0.516478,0.508075,-0.587650,-0.360246
1741,2505560588,0.531047,0.497904,-0.580343,-0.365079
1742,2505577255,0.541403,0.490268,-0.576022,-0.367042
1743,2505593922,0.546977,0.484881,-0.574500,-0.368316
1744,2505610589,0.551337,0.480696,-0.573354,-0.369087
1745,2505627256,0.557472,0.476512,-0.570450,-0.369795
1746,2505643923,0.566408,0.472217,-0.564839,-0.370338
1747,2505660590,0.574960,0.467848,-0.559994,-0.370063
1748,2505677257,0.579426,0.466540,-0.557182,-0.368992
1749,2505693924,0.572900,0.468452,-0.562069,-0.369349
1750,2505710591,0.561808,0.463625,-0.568260,-0.382759
1751,2505727258,0.554369,0.444610,-0.578942,-0.399779
1752,2505743925,0.547706,0.417917,-0.588372,-0.423300
1753,2505760592,0.539257,0.394118,-0.596430,-0.445135
1754,2505777259,0.506759,0.378571,-0.613712,-0.472481
1755,2505793926,0.487995,0.353272,-0.626983,-0.493916
1756,2505810593,0.473965,0.341954,-0.615917,-0.528271
1757,2505827260,0.446769,0.322771,-0.620465,-0.557888
1758,2505843927,0.413194,0.296695,-0.645243,-0.570004
1759,2505860594,0.376635,0.249466,-0.661013,-0.599145
1760,2505877261,0.328666,0.196617,-0.679399,-0.625889
1761,2505893928,0.279487,0.163784,-0.688955,-0.648385
1762,2505910595,0.245013,0.133780,-0.699435,-0.657923
1763,2505927262,0.207264,0.131193,-0.703367,-0.667162
1764,2505943929,0.161924,0.145270,-0.707000,-0.672926
1765,2505960596,0.124395,0.197123,-0.657181,-0.716786
1766,2505977263,0.087440,0.226447,-0.548241,-0.800318
1767,2505993930,0.072214,0.232359,-0.419703,-0.874440
1768,2506010597,0.075050,0.195092,-0.337212,-0.917930
1769,2506027264,0.077067,0.135770,-0.279344,-0.947415
1770,2506043931,0.079284,0.090113,-0.260281,-0.958044
1771,2506060598,0.098597,0.052660,-0.255362,-0.960362
1772,2506077265,0.102554,0.019290,-0.243352,-0.964309
1773,2506093932,0.083187,-0.025175,-0.254175,-0.963245
1774,2506110599,0.053137,-0.058692,-0.260650,-0.962182
1775,2506127266,0.036739,-0.093511,-0.280546,-0.954568
1776,2506143933,0.034769,-0.117625,-0.302368,-0.945267
1777,2506160600,0.048584,-0.126428,-0.338587,-0.931136
1778,2506177267,0.035112,-0.118221,-0.352702,-0.927574
1779,2506193934,0.032902,-0.121632,-0.364377,-0.922688
1780,2506210601,0.038861,-0.109348,-0.374772,-0.919826
1781,2506227268,0.045530,-0.094756,-0.380093,-0.918955
1782,2506243935,0.048131,-0.093070,-0.385535,-0.916725
1783,2506260602,0.052208,-0.094547,-0.383285,-0.917294
1784,2506277269,0.049612,-0.100846,-0.374019,-0.920586
1785,2506293936,0.042542,-0.090844,-0.362398,-0.926610
1786,2506310603,0.031125,-0.059718,-0.321545,-0.944497
1787,2506327270,0.023938,-0.035317,-0.287523,-0.956823
1788,2506343937,0.022977,-0.006449,-0.266022,-0.963672
1789,2506360604,0.022143,0.009791,-0.252470,-0.967302
1790,2506377271,0.020123,0.015442,-0.235480,-0.971548
1791,2506393938,0.011449,0.024443,-0.217272,-0.975738
1792,2506410605,-0.003542,0.036006,-0.201147,-0.978893
1793,2506427272,-0.016629,0.035559,-0.184376,-0.982072
1794,2506443939,-0.035608,0.027366,-0.175706,-0.983418
1795,2506460606,-0.059828,0.011562,-0.167033,-0.984067
1796,2506477273,-0.068774,0.010012,-0.162117,-0.984321
1797,2506493940,-0.067088,0.026790,-0.166281,-0.983429
1798,2506510607,-0.069283,0.026566,-0.162209,-0.983963
1799,2506527274,-0.072977,0.013235,-0.155459,-0.985054
1800,2506543941,-0.076264,-0.011372,-0.142356,-0.986808
1801,2506560608,-0.076342,-0.032260,-0.125751,-0.988594
1802,2506577275,-0.071293,-0.055980,-0.118192,-0.988845
1803,2506593942,-0.067248,-0.070767,-0.120743,-0.987872
1804,2506610609,-0.060930,-0.028405,-0.136887,-0.988303
1805,2506627276,-0.063372,-0.017591,-0.140290,-0.987924
1806,2506643943,-0.068233,-0.038159,-0.130061,-0.988419
1807,2506660610,-0.070723,-0.069395,-0.116099,-0.988283
1808,2506677277,-0.070514,-0.100170,-0.107541,-0.986625
1809,2506693944,-0.071785,-0.139285,-0.094564,-0.983110
1810,2506710611,-0.074105,-0.173433,-0.086958,-0.978196
1811,2506727278,-0.069113,-0.215114,-0.075467,-0.971213
1812,2506743945,-0.066686,-0.224694,-0.080874,-0.968775
1813,2506760612,-0.086909,-0.229858,-0.067300,-0.966997
1814,2506777279,-0.105396,-0.243721,-0.054275,-0.962573
1815,2506793946,-0.110294,-0.248547,-0.052685,-0.960877
1816,2506810613,-0.085024,-0.189332,-0.072703,-0.975520
1817,2506827280,-0.061430,-0.102964,-0.110452,-0.986623
1818,2506843947,-0.062607,-0.112559,-0.115357,-0.984939
1819,2506860614,-0.076826,-0.115988,-0.133767,-0.981199
1820,2506877281,-0.082791,-0.121090,-0.143562,-0.978710
1821,2506893948,-0.084252,-0.129874,-0.148983,-0.976647
1822,2506910615,-0.083355,-0.140039,-0.151985,-0.974855
1823,2506927282,-0.083117,-0.146572,-0.154763,-0.973477
1824,2506943949,-0.083768,-0.156201,-0.156626,-0.971624
1825,2506960616,-0.084890,-0.176550,-0.156543,-0.968049
1826,2506977283,-0.094232,-0.190235,-0.160076,-0.964006
1827,2506993950,-0.113708,-0.177832,-0.172906,-0.962055
1828,2507010617,-0.128133,-0.170488,-0.176521,-0.960914
1829,2507027284,-0.141379,-0.156373,-0.181333,-0.960561
1830,2507043951,-0.152921,-0.146754,-0.185262,-0.959561
1831,2507060618,-0.162707,-0.145144,-0.187559,-0.957748
1832,2507077285,-0.167407,-0.148739,-0.187691,-0.956360
1833,2507093952,-0.163927,-0.152653,-0.187891,-0.956307
1834,2507110619,-0.150795,-0.149400,-0.187129,-0.959126
1835,2507127286,-0.129226,-0.148411,-0.185734,-0.962693
1836,2507143953,-0.103944,-0.160347,-0.182503,-0.964457
1837,2507160620,-0.085520,-0.175924,-0.170513,-0.965745
1838,2507177287,-0.077156,-0.193772,-0.154817,-0.965677
1839,2507193954,-0.074501,-0.209397,-0.139276,-0.964990
1840,2507210621,-0.079387,-0.175637,-0.137416,-0.971579
1841,2507227288,-0.077588,-0.160633,-0.123625,-0.976163
1842,2507243955,-0.072474,-0.153113,-0.111083,-0.979267
1843,2507260622,-0.065041,-0.150715,-0.101008,-0.981250
1844,2507277289,-0.056193,-0.146428,-0.095849,-0.982962
1845,2507293956,-0.044522,-0.139982,-0.095498,-0.984532
1846,2507310623,-0.036637,-0.133987,-0.092637,-0.985964
1847,2507327290,-0.039432,-0.114988,-0.093525,-0.988168
1848,2507343957,-0.042465,-0.090047,-0.098615,-0.990133
1849,2507360624,-0.043751,-0.060644,-0.096290,-0.992541
1850,2507377291,-0.045776,-0.028934,-0.109174,-0.992547
1851,2507393958,-0.044865,-0.010754,-0.117393,-0.992014
1852,2507410625,-0.041519,-0.002187,-0.118417,-0.992093
1853,2507427292,-0.038837,0.006300,-0.115244,-0.992558
1854,2507443959,-0.046918,0.011693,-0.111876,-0.992545
1855,2507460626,-0.037010,0.012402,-0.123356,-0.991595
1856,2507477293,-0.021582,0.010839,-0.130774,-0.991118
1857,2507493960,-0.011847,0.006239,-0.141729,-0.989815
1858,2507510627,-0.003365,0.012286,-0.159674,-0.987088
1859,2507527294,0.011764,0.015661,-0.172360,-0.984839
1860,2507543961,0.042442,0.009269,-0.181282,-0.982471
1861,2507560628,0.074100,-0.007463,-0.187814,-0.979377
1862,2507577295,0.085724,-0.022884,-0.185122,-0.978702
1863,2507593962,0.092807,-0.050584,-0.179342,-0.978093
1864,2507610629,0.090009,-0.082899,-0.177916,-0.976408
1865,2507627296,0.089576,-0.107106,-0.181351,-0.973456
1866,2507643963,0.089712,-0.120297,-0.184729,-0.971265
1867,2507660630,0.082799,-0.129116,-0.181979,-0.971266
1868,2507677297,0.078652,-0.143867,-0.172267,-0.971309
1869,2507693964,0.078074,-0.159414,-0.166555,-0.969923
1870,2507710631,0.075168,-0.168961,-0.148255,-0.971505
1871,2507727298,0.057924,-0.167299,-0.128008,-0.975843
1872,2507743965,0.019299,-0.158964,-0.107876,-0.981183
1873,2507760632,-0.019203,-0.149908,-0.083914,-0.984945
1874,2507777299,-0.040884,-0.147286,-0.061712,-0.986320
1875,2507793966,-0.049992,-0.153923,-0.040070,-0.986004
1876,2507810633,-0.063367,-0.167992,-0.011699,-0.983680
1877,2507827300,-0.086212,-0.186545,0.052762,-0.977233
1878,2507843967,-0.113538,-0.203976,0.127328,-0.963997
1879,2507860634,-0.141684,-0.219667,0.167303,-0.950622
1880,2507877301,-0.166628,-0.224014,0.176629,-0.943851
1881,2507893968,-0.198835,-0.218792,0.186688,-0.936879
1882,2507910635,-0.230000,-0.216170,0.207146,-0.925992
1883,2507927302,-0.258023,-0.218645,0.216765,-0.915769
1884,2507943969,-0.293255,-0.218675,0.217243,-0.904980
1885,2507960636,-0.320071,-0.223263,0.224662,-0.892881
1886,2507977303,-0.327710,-0.214086,0.237180,-0.889111
1887,2507993970,-0.324965,-0.181109,0.218283,-0.902192
1888,2508010637,-0.339477,-0.138079,0.193701,-0.910038
1889,2508027304,-0.349981,-0.106301,0.200288,-0.908899
1890,2508043971,-0.351474,-0.089189,0.206011,-0.908884
1891,2508060638,-0.347962,-0.089211,0.231962,-0.903968
1892,2508077305,-0.336548,-0.090563,0.241649,-0.905616
1893,2508093972,-0.324798,-0.080842,0.231657,-0.913404
1894,2508110639,-0.329084,-0.055493,0.251720,-0.908439
1895,2508127306,-0.349813,-0.010546,0.308304,-0.884573
1896,2508143973,-0.347188,0.015528,0.345965,-0.871509
1897,2508160640,-0.335946,0.038334,0.326665,-0.882588
1898,2508177307,-0.345658,0.069512,0.316261,-0.880720
1899,2508193974,-0.353132,0.090919,0.344745,-0.864976
1900,2508210641,-0.355332,0.106124,0.372337,-0.850789
1901,2508227308,-0.354371,0.114038,0.417383,-0.828981
1902,2508243975,-0.354511,0.132448,0.464223,-0.800798
1903,2508260642,-0.337725,0.126916,0.485176,-0.796517
1904,2508277309,-0.327534,0.145711,0.518425,-0.776354
1905,2508293976,-0.323434,0.158461,0.548532,-0.754582
1906,2508310643,-0.330071,0.167854,0.574536,-0.729923
1907,2508327310,-0.342163,0.179201,0.597363,-0.702829
1908,2508343977,-0.355711,0.187555,0.610960,-0.681924
1909,2508360644,-0.361897,0.193104,0.625335,-0.663851
1910,2508377311,-0.365408,0.194631,0.635843,-0.651383
1911,2508393978,-0.370529,0.199290,0.645130,-0.637808
1912,2508410645,-0.376059,0.204626,0.656299,-0.621273
1913,2508427312,-0.380497,0.200695,0.663580,-0.612050
1914,2508443979,-0.381244,0.188016,0.668006,-0.610795
1915,2508460646,-0.380123,0.179881,0.674199,-0.607129
1916,2508477313,-0.378678,0.175499,0.681656,-0.600956
1917,2508493980,-0.380078,0.167691,0.688084,-0.594947
1918,2508510647,-0.385679,0.164749,0.695656,-0.583243
1919,2508527314,-0.396418,0.165123,0.702429,-0.567610
1920,2508543981,-0.405305,0.161619,0.703941,-0.560424
1921,2508560648,-0.405493,0.152396,0.704372,-0.562327
1922,2508577315,-0.405332,0.147341,0.708145,-0.559041
1923,2508593982,-0.411127,0.147366,0.714716,-0.546296
1924,2508610649,-0.422234,0.149721,0.719492,-0.530692
1925,2508627316,-0.435318,0.149540,0.720981,-0.518000
1926,2508643983,-0.447893,0.153281,0.723852,-0.501932
1927,2508660650,-0.461271,0.163253,0.728795,-0.478995
1928,2508677317,-0.476267,0.176380,0.733444,-0.451797
1929,2508693984,-0.491888,0.191736,0.738345,-0.419680
1930,2508710651,-0.506292,0.208206,0.743503,-0.384086
1931,2508727318,-0.518248,0.220526,0.748362,-0.350346
1932,2508743985,-0.526104,0.228499,0.754306,-0.319415
1933,2508760652,-0.529729,0.234356,0.760985,-0.292174
1934,2508777319,-0.532471,0.243240,0.767116,-0.262380
1935,2508793986,-0.536242,0.257073,0.771751,-0.225297
1936,2508810653,-0.539409,0.271512,0.775472,-0.184293
1937,2508827320,-0.544024,0.284348,0.776769,-0.140765
1938,2508843987,-0.550039,0.294099,0.775496,-0.097818
1939,2508860654,-0.557131,0.299868,0.772259,-0.057454
1940,2508877321,-0.564202,0.298931,0.769186,-0.025877
1941,2508893988,-0.567657,0.297290,0.767714,-0.000645
1942,2508910655,-0.567978,0.297599,0.767086,0.020378
1943,2508927322,-0.566653,0.300424,0.766468,0.034316
1944,2508943989,-0.563603,0.311759,0.763405,0.048698
1945,2508960656,-0.567824,0.326354,0.752417,0.070266
1946,2508977323,-0.572494,0.333233,0.744578,0.082529
1947,2508993990,-0.577381,0.342642,0.734399,0.099432
1948,2509010657,-0.579017,0.359621,0.720642,0.126839
1949,2509027324,-0.581596,0.375249,0.704899,0.155091
1950,2509043991,-0.585601,0.384564,0.692468,0.172250
1951,2509060658,-0.590461,0.384668,0.688742,0.170356
1952,2509077325,-0.596192,0.388860,0.681601,0.169602
1953,2509093992,-0.598706,0.387411,0.680910,0.166809
1954,2509110659,-0.600959,0.387162,0.677660,0.172429
1955,2509127326,-0.599981,0.391669,0.672686,0.184693
1956,2509143993,-0.598086,0.397760,0.665751,0.202129
1957,2509160660,-0.596024,0.402979,0.661754,0.210823
1958,2509177327,-0.597603,0.406110,0.658828,0.209504
1959,2509193994,-0.600856,0.411383,0.652273,0.210420
1960,2509210661,-0.601397,0.415344,0.648234,0.213552
1961,2509227328,-0.601557,0.420911,0.641088,0.223542
1962,2509243995,-0.603705,0.427864,0.630827,0.233518
1963,2509260662,-0.605497,0.430386,0.626752,0.235210
1964,2509277329,-0.607120,0.431030,0.625057,0.234355
1965,2509293996,-0.607162,0.433024,0.622657,0.236946
1966,2509310663,-0.606633,0.436427,0.618492,0.242890
1967,2509327330,-0.605124,0.438597,0.614137,0.253562
1968,2509343997,-0.602160,0.440573,0.611370,0.263678
1969,2509360664,-0.600032,0.441525,0.609569,0.271003
1970,2509377331,-0.601058,0.440052,0.608788,0.272876
1971,2509393998,-0.602196,0.437566,0.609071,0.273729
1972,2509410665,-0.601363,0.435216,0.611177,0.274615
1973,2509427332,-0.598346,0.433530,0.613071,0.279603
1974,2509443999,-0.596683,0.435965,0.609105,0.287915
1975,2509460666,-0.598660,0.437834,0.605020,0.289584
1976,2509477333,-0.599162,0.438625,0.603350,0.290831
1977,2509494000,-0.599900,0.440864,0.599723,0.293413
1978,2509510667,-0.601007,0.444176,0.594964,0.295833
1979,2509527334,-0.601099,0.448349,0.590471,0.298342
1980,2509544001,-0.601173,0.451628,0.588056,0.298016
1981,2509560668,-0.604358,0.454077,0.585023,0.293792
1982,2509577335,-0.610911,0.458252,0.577312,0.288972
1983,2509594002,-0.622975,0.466883,0.561293,0.280844
1984,2509610669,-0.635552,0.483166,0.539791,0.266928
1985,2509627336,-0.641127,0.500823,0.521464,0.257309
1986,2509644003,-0.653695,0.508874,0.504550,0.243229
1987,2509660670,-0.668974,0.508326,0.492876,0.226169
1988,2509677337,-0.679774,0.505780,0.482759,0.221445
1989,2509694004,-0.679289,0.491051,0.500132,0.217494
1990,2509710671,-0.660851,0.494327,0.522817,0.213494
1991,2509727338,-0.642350,0.502242,0.543474,0.199440
1992,2509744005,-0.620457,0.496945,0.577798,0.185012
1993,2509760672,-0.604662,0.495630,0.599478,0.171350
1994,2509777339,-0.580856,0.499069,0.622173,0.162596
1995,2509794006,-0.569660,0.489203,0.640695,0.160243
1996,2509810673,-0.559780,0.475788,0.659051,0.161010
1997,2509827340,-0.555112,0.455176,0.678726,0.154908
1998,2509844007,-0.550353,0.430036,0.700937,0.144460
1999,2509860674,-0.550438,0.402643,0.718579,0.136166
2000,2509877341,-0.540193,0.378976,0.741012,0.124376
2001,2509894008,-0.525537,0.357160,0.763833,0.113170
2002,2509910675,-0.513697,0.335879,0.781881,0.109373
2003,2509927342,-0.506264,0.312288,0.797154,0.103531
2004,2509944009,-0.508461,0.289689,0.804402,0.102402
2005,2509960676,-0.511915,0.265117,0.811287,0.097317
2006,2509977343,-0.510182,0.246528,0.818176,0.097604
2007,2509994010,-0.509846,0.223956,0.825299,0.093716
2008,2510010677,-0.510912,0.203768,0.830051,0.091993
2009,2510027344,-0.513969,0.184708,0.832879,0.089627
2010,2510044011,-0.512591,0.165488,0.838111,0.086220
2011,2510060678,-0.510871,0.146270,0.843037,0.083095
2012,2510077345,-0.507988,0.125334,0.848546,0.078800
2013,2510094012,-0.504097,0.102565,0.854529,0.071749
2014,2510110679,-0.508211,0.076531,0.855475,0.063460
2015,2510127346,-0.508825,0.050533,0.857745,0.053089
2016,2510144013,-0.498369,0.023431,0.865727,0.039970
2017,2510160680,-0.493141,-0.002870,0.869547,0.026326
2018,2510177347,-0.488935,-0.029755,0.871718,0.012830
2019,2510194014,-0.476656,-0.058746,0.877124,-0.001485
2020,2510210681,-0.467330,-0.092807,0.879018,-0.017827
2021,2510227348,-0.456375,-0.128198,0.879859,-0.033695
2022,2510244015,-0.447106,-0.162804,0.878241,-0.047801
2023,2510260682,-0.445416,-0.197146,0.871085,-0.062839
2024,2510277349,-0.442944,-0.232643,0.862359,-0.077559
2025,2510294016,-0.441764,-0.269598,0.850652,-0.092484
2026,2510310683,-0.442208,-0.308158,0.835139,-0.109696
2027,2510327350,-0.446687,-0.348193,0.813381,-0.132828
2028,2510344017,-0.452253,-0.387252,0.786570,-0.163741
2029,2510360684,-0.455763,-0.425292,0.756440,-0.198006
2030,2510377351,-0.458029,-0.458260,0.726902,-0.227643
2031,2510394018,-0.458486,-0.486542,0.698206,-0.256079
2032,2510410685,-0.455266,-0.513551,0.668476,-0.286598
2033,2510427352,-0.446774,-0.540140,0.635871,-0.322971
2034,2510444019,-0.436676,-0.560908,0.605765,-0.357414
2035,2510460686,-0.429716,-0.573465,0.584863,-0.380024
2036,2510477353,-0.426326,-0.581317,0.572720,-0.390268
2037,2510494020,-0.428128,-0.585466,0.566208,-0.391592
2038,2510510687,-0.430417,-0.589008,0.560023,-0.392664
2039,2510527354,-0.430991,-0.592849,0.552797,-0.396474
2040,2510544021,-0.430179,-0.596648,0.545782,-0.401348
2041,2510560688,-0.428765,-0.599761,0.540264,-0.405663
2042,2510577355,-0.426387,-0.602881,0.534247,-0.411473
2043,2510594022,-0.422960,-0.606242,0.527742,-0.418407
2044,2510610689,-0.420742,-0.608459,0.522168,-0.424377
2045,2510627356,-0.421022,-0.607975,0.519875,-0.427594
2046,2510644023,-0.422373,-0.606549,0.519008,-0.429337
2047,2510660690,-0.423240,-0.605476,0.517449,-0.431872
2048,2510677357,-0.422514,-0.604512,0.514960,-0.436880
2049,2510694024,-0.422942,-0.602268,0.514851,-0.439684
2050,2510710691,-0.424373,-0.599003,0.516270,-0.441099
2051,2510727358,-0.426257,-0.594906,0.518190,-0.442574
2052,2510744025,-0.426914,-0.591192,0.520634,-0.444046
2053,2510760692,-0.425488,-0.588468,0.522077,-0.447327
2054,2510777359,-0.422869,-0.587233,0.521472,-0.452113
2055,2510794026,-0.418699,-0.585279,0.520542,-0.459539
2056,2510810693,-0.414461,-0.583207,0.520062,-0.466505
2057,2510827360,-0.411738,-0.579736,0.520799,-0.472383
2058,2510844027,-0.407630,-0.576638,0.521753,-0.478645
2059,2510860694,-0.403252,-0.573191,0.522882,-0.485216
2060,2510877361,-0.400975,-0.570445,0.523094,-0.490087
2061,2510894028,-0.401060,-0.567485,0.523533,-0.492976
2062,2510910695,-0.402737,-0.565272,0.524436,-0.493191
2063,2510927362,-0.404728,-0.563706,0.525054,-0.492697
2064,2510944029,-0.406022,-0.562826,0.524671,-0.493045
2065,2510960696,-0.406757,-0.562616,0.523646,-0.493768
2066,2510977363,-0.407572,-0.562735,0.523456,-0.493162
2067,2510994030,-0.408412,-0.562942,0.522780,-0.492948
2068,2511010697,-0.409300,-0.563182,0.522074,-0.492686
2069,2511027364,-0.410792,-0.563514,0.520332,-0.492907
2070,2511044031,-0.411536,-0.563681,0.518503,-0.494021
2071,2511060698,-0.411665,-0.565190,0.514226,-0.496653
2072,2511077365,-0.412525,-0.566360,0.511186,-0.497743
2073,2511094032,-0.413917,-0.565345,0.512773,-0.496106
2074,2511110699,-0.415572,-0.564817,0.512213,-0.495904
2075,2511127366,-0.415735,-0.564905,0.511559,-0.496340
2076,2511144033,-0.414676,-0.565465,0.510799,-0.497372
2077,2511160700,-0.414076,-0.564847,0.511651,-0.497698
2078,2511177367,-0.414483,-0.563514,0.513570,-0.496893
2079,2511194034,-0.415097,-0.561905,0.515443,-0.496262
2080,2511210701,-0.415543,-0.560279,0.517457,-0.495631
2081,2511227368,-0.416266,-0.559047,0.518526,-0.495298
2082,2511244035,-0.416069,-0.557968,0.519494,-0.495666
2083,2511260702,-0.416374,-0.557565,0.519479,-0.495880
2084,2511277369,-0.417396,-0.557307,0.518846,-0.495972
2085,2511294036,-0.420505,-0.555330,0.520433,-0.493897
2086,2511310703,-0.424177,-0.551999,0.524248,-0.490445
2087,2511327370,-0.426420,-0.548835,0.528075,-0.487938
2088,2511344037,-0.426520,-0.547901,0.529525,-0.487328
2089,2511360704,-0.426842,-0.547862,0.529863,-0.486722
2090,2511377371,-0.427879,-0.548003,0.530738,-0.484696
2091,2511394038,-0.426146,-0.549753,0.529291,-0.485821
2092,2511410705,-0.426582,-0.549695,0.530248,-0.484460
2093,2511427372,-0.428761,-0.549700,0.532311,-0.480250
2094,2511444039,-0.430970,-0.551409,0.533933,-0.474478
2095,2511460706,-0.432826,-0.552763,0.535254,-0.469701
2096,2511477373,-0.434772,-0.553160,0.536381,-0.466135
2097,2511494040,-0.439560,-0.550721,0.539744,-0.460620
2098,2511510707,-0.447618,-0.545540,0.546664,-0.450759
2099,2511527374,-0.450276,-0.541420,0.551364,-0.447340
2100,2511544041,-0.448609,-0.536506,0.557058,-0.447882
2101,2511560708,-0.444708,-0.502280,0.593202,-0.445040
2102,2511577375,-0.445184,-0.498084,0.596672,-0.444643
2103,2511594042,-0.444606,-0.496961,0.598029,-0.444654
2104,2511610709,-0.443639,-0.495612,0.599364,-0.445327
2105,2511627376,-0.443431,-0.493245,0.601138,-0.445771
2106,2511644043,-0.442593,-0.491811,0.602420,-0.446458
2107,2511660710,-0.442781,-0.490519,0.604015,-0.445535
2108,2511677377,-0.438436,-0.492545,0.603939,-0.447696
2109,2511694044,-0.434044,-0.497191,0.601094,-0.450659
2110,2511710711,-0.430057,-0.501824,0.597878,-0.453613
2111,2511727378,-0.427420,-0.505071,0.595143,-0.456092
2112,2511744045,-0.426816,-0.506651,0.594230,-0.456096
2113,2511760712,-0.428723,-0.505083,0.595645,-0.454197
2114,2511777379,-0.431087,-0.502988,0.597407,-0.451964
2115,2511794046,-0.432395,-0.502450,0.597947,-0.450598
2116,2511810713,-0.433027,-0.502904,0.597795,-0.449686
2117,2511827380,-0.434328,-0.502212,0.598328,-0.448494
2118,2511844047,-0.437243,-0.499455,0.600014,-0.446484
2119,2511860714,-0.440303,-0.495248,0.602645,-0.444615
2120,2511877381,-0.442657,-0.491489,0.605197,-0.442979
2121,2511894048,-0.443140,-0.490879,0.605171,-0.443208
2122,2511910715,-0.442436,-0.492163,0.603633,-0.444582
2123,2511927382,-0.442297,-0.493233,0.602299,-0.445343
2124,2511944049,-0.444123,-0.492211,0.602692,-0.444123
2125,2511960716,-0.447887,-0.488710,0.604744,-0.441411
2126,2511977383,-0.452819,-0.483939,0.607050,-0.438462
2127,2511994050,-0.457027,-0.479297,0.609617,-0.435624
2128,2512010717,-0.461886,-0.472116,0.614475,-0.431495
2129,2512027384,-0.465267,-0.466277,0.618721,-0.428132
2130,2512044051,-0.465755,-0.463918,0.620750,-0.427226
2131,2512060718,-0.465554,-0.462477,0.622041,-0.427130
2132,2512077385,-0.465312,-0.462098,0.622322,-0.427395
2133,2512094052,-0.463990,-0.464109,0.620683,-0.429033
2134,2512110719,-0.462712,-0.466257,0.618848,-0.430732
2135,2512127386,-0.462601,-0.466178,0.618773,-0.431044
2136,2512144053,-0.462445,-0.466140,0.618903,-0.431066
2137,2512160720,-0.462570,-0.466242,0.618936,-0.430774
2138,2512177387,-0.462143,-0.467592,0.617733,-0.431495
2139,2512194054,-0.462318,-0.467422,0.617446,-0.431902
2140,2512210721,-0.462552,-0.467310,0.617137,-0.432214
2141,2512227388,-0.462436,-0.468429,0.616102,-0.432605
2142,2512244055,-0.462315,-0.469889,0.614924,-0.432825
2143,2512260722,-0.461730,-0.471955,0.613024,-0.433897
2144,2512277389,-0.460807,-0.475433,0.609683,-0.435784
2145,2512294056,-0.459059,-0.480436,0.605046,-0.438594
2146,2512310723,-0.456415,-0.485489,0.600552,-0.441954
2147,2512327390,-0.453356,-0.489616,0.596840,-0.445564
2148,2512344057,-0.451573,-0.491385,0.595067,-0.447793
2149,2512360724,-0.451994,-0.490689,0.595567,-0.447466
2150,2512377391,-0.453620,-0.489430,0.596806,-0.445544
2151,2512394058,-0.456025,-0.487137,0.599108,-0.442503
2152,2512410725,-0.458236,-0.484377,0.601406,-0.440125
2153,2512427392,-0.459380,-0.482040,0.603151,-0.439110
2154,2512444059,-0.461449,-0.478069,0.606173,-0.437116
2155,2512460726,-0.463266,-0.473021,0.610583,-0.434540
2156,2512477393,-0.464008,-0.469629,0.613014,-0.434003
2157,2512494060,-0.462203,-0.470254,0.612056,-0.436598
2158,2512510727,-0.458664,-0.474608,0.608415,-0.440688
2159,2512527394,-0.455105,-0.479766,0.603733,-0.445209
2160,2512544061,-0.453100,-0.481341,0.602043,-0.447835
2161,2512560728,-0.453344,-0.480291,0.603391,-0.446900
2162,2512577395,-0.455492,-0.478472,0.605561,-0.443720
2163,2512594062,-0.459378,-0.475999,0.606904,-0.440528
2164,2512610729,-0.461488,-0.473706,0.608645,-0.438388
2165,2512627396,-0.465553,-0.469437,0.611223,-0.435082
2166,2512644063,-0.468190,-0.467002,0.612586,-0.432951
2167,2512660730,-0.470153,-0.465254,0.613226,-0.431797
2168,2512677397,-0.469897,-0.465637,0.612879,-0.432155
2169,2512694064,-0.468113,-0.467672,0.611886,-0.433299
2170,2512710731,-0.466674,-0.469811,0.610665,-0.434261
2171,2512727398,-0.465702,-0.471707,0.609185,-0.435325
2172,2512744065,-0.466077,-0.471770,0.608727,-0.435496
2173,2512760732,-0.466745,-0.471211,0.608978,-0.435035
2174,2512777399,-0.467045,-0.470959,0.609430,-0.434353
2175,2512794066,-0.466573,-0.471844,0.609323,-0.434050
2176,2512810733,-0.465535,-0.473279,0.608905,-0.434188
2177,2512827400,-0.464877,-0.474515,0.608617,-0.433948
2178,2512844067,-0.463604,-0.476266,0.607703,-0.434671
2179,2512860734,-0.462115,-0.478316,0.606117,-0.436218
2180,2512877401,-0.461325,-0.479375,0.605344,-0.436965
2181,2512894068,-0.462377,-0.478125,0.606237,-0.435983
2182,2512910735,-0.463274,-0.477108,0.606960,-0.435139
2183,2512927402,-0.463556,-0.476957,0.606949,-0.435019
2184,2512944069,-0.463157,-0.477960,0.606039,-0.435611
2185,2512960736,-0.462330,-0.479749,0.604426,-0.436763
2186,2512977403,-0.461406,-0.481470,0.602927,-0.437916
2187,2512994070,-0.461099,-0.481807,0.602595,-0.438326
2188,2513010737,-0.462078,-0.480260,0.603647,-0.437545
2189,2513027404,-0.462429,-0.480112,0.603579,-0.437429
2190,2513044071,-0.462997,-0.480704,0.602978,-0.437008
2191,2513060738,-0.463447,-0.481954,0.601967,-0.436548
2192,2513077405,-0.463920,-0.483152,0.600940,-0.436135
2193,2513094072,-0.465377,-0.482535,0.601467,-0.434537
2194,2513110739,-0.467256,-0.480736,0.602934,-0.432475
2195,2513127406,-0.468828,-0.479113,0.604118,-0.430921
2196,2513144073,-0.469133,-0.478955,0.604210,-0.430637
2197,2513160740,-0.468645,-0.479396,0.604147,-0.430765
2198,2513177407,-0.467390,-0.480204,0.604050,-0.431364
2199,2513194074,-0.465682,-0.481190,0.604354,-0.431686
2200,2513210741,-0.465723,-0.481587,0.605420,-0.429701
2201,2513227408,-0.466562,-0.482244,0.605902,-0.427369
2202,2513244075,-0.469620,-0.485992,0.603733,-0.422818
2203,2513260742,-0.474356,-0.492209,0.599782,-0.415907
2204,2513277409,-0.478623,-0.496569,0.596571,-0.410418
2205,2513294076,-0.481218,-0.499213,0.594723,-0.406843
2206,2513310743,-0.489809,-0.501316,0.592843,-0.396620
2207,2513327410,-0.502971,-0.498121,0.593613,-0.382780
2208,2513344077,-0.517667,-0.486749,0.599093,-0.369031
2209,2513360744,-0.524288,-0.479781,0.602000,-0.364045
2210,2513377411,-0.531893,-0.473610,0.604617,-0.356682
2211,2513394078,-0.538470,-0.468212,0.607074,-0.349699
2212,2513410745,-0.541672,-0.464901,0.608312,-0.347010
2213,2513427412,-0.544837,-0.461540,0.609676,-0.344135
2214,2513444079,-0.544582,-0.462530,0.608809,-0.344744
2215,2513460746,-0.543180,-0.465159,0.607273,-0.346127
2216,2513477413,-0.541913,-0.467362,0.605976,-0.347414
2217,2513494080,-0.544557,-0.463562,0.608187,-0.344496
2218,2513510747,-0.547506,-0.458270,0.611076,-0.341778
2219,2513527414,-0.550118,-0.454450,0.613078,-0.339090
2220,2513544081,-0.551070,-0.453808,0.613401,-0.337817
2221,2513560748,-0.551813,-0.456246,0.611955,-0.335935
2222,2513577415,-0.550111,-0.460396,0.610009,-0.336605
2223,2513594082,-0.549715,-0.461629,0.609084,-0.337238
2224,2513610749,-0.549143,-0.462704,0.608355,-0.338013
2225,2513627416,-0.546719,-0.465665,0.606743,-0.340760
2226,2513644083,-0.541118,-0.473451,0.602016,-0.347293
2227,2513660750,-0.531443,-0.487114,0.592957,-0.358735
2228,2513677417,-0.519552,-0.503640,0.581108,-0.372462
2229,2513694084,-0.508542,-0.518372,0.569552,-0.385080
2230,2513710751,-0.500873,-0.528443,0.560222,-0.395001
2231,2513727418,-0.493198,-0.538551,0.550120,-0.405077
2232,2513744085,-0.485318,-0.548856,0.539838,-0.414486
2233,2513760752,-0.480101,-0.556990,0.531195,-0.420829
2234,2513777419,-0.478326,-0.562560,0.525010,-0.423198
2235,2513794086,-0.479300,-0.564140,0.523211,-0.422218
2236,2513810753,-0.481910,-0.563194,0.524198,-0.419275
2237,2513827420,-0.483607,-0.562880,0.524597,-0.417240
2238,2513844087,-0.483725,-0.563073,0.524310,-0.417203
2239,2513860754,-0.483679,-0.563413,0.523751,-0.417500
2240,2513877421,-0.484226,-0.563088,0.523806,-0.417235
2241,2513894088,-0.485161,-0.562311,0.524287,-0.416593
2242,2513910755,-0.485999,-0.561605,0.524610,-0.416161
2243,2513927422,-0.486563,-0.561209,0.524538,-0.416126
2244,2513944089,-0.487106,-0.560867,0.524396,-0.416130
2245,2513960756,-0.488135,-0.560299,0.524452,-0.415621
2246,2513977423,-0.488667,-0.559633,0.524633,-0.415663
2247,2513994090,-0.490303,-0.559634,0.523143,-0.415613
2248,2514010757,-0.493677,-0.559977,0.524298,-0.409660
2249,2514027424,-0.494337,-0.557923,0.525656,-0.409926
2250,2514044091,-0.491423,-0.560602,0.522076,-0.414326
2251,2514060758,-0.485134,-0.566120,0.514898,-0.423124
2252,2514077425,-0.476072,-0.574055,0.504221,-0.435405
2253,2514094092,-0.465035,-0.583873,0.490586,-0.449623
2254,2514110759,-0.452581,-0.594606,0.476592,-0.463114
2255,2514127426,-0.436810,-0.606938,0.460565,-0.478229
2256,2514144093,-0.419546,-0.618890,0.442907,-0.494763
2257,2514160760,-0.404674,-0.629723,0.424343,-0.509531
2258,2514177427,-0.395588,-0.637531,0.412927,-0.516290
2259,2514194094,-0.393116,-0.640974,0.409203,-0.516881
2260,2514210761,-0.391700,-0.639493,0.412470,-0.517193
2261,2514227428,-0.389322,-0.634591,0.421860,-0.517453
2262,2514244095,-0.389680,-0.626694,0.434844,-0.516058
